,acc_x,acc_y,acc_z,gyr_x,gyr_y,gyr_z,category,participant,set,labelBenchPress,labelDeadlift,labelOHP,labelRow,labelSquat,labelRest,acc_r,gyr_r,acc_x_temp_mean_ws_5,acc_y_temp_mean_ws_5,acc_z_temp_mean_ws_5,gyr_x_temp_mean_ws_5,gyr_y_temp_mean_ws_5,gyr_z_temp_mean_ws_5,acc_r_temp_mean_ws_5,gyr_r_temp_mean_ws_5,acc_x_temp_std_ws_5,acc_y_temp_std_ws_5,acc_z_temp_std_ws_5,gyr_x_temp_std_ws_5,gyr_y_temp_std_ws_5,gyr_z_temp_std_ws_5,acc_r_temp_std_ws_5,gyr_r_temp_std_ws_5,acc_r_max_freq,acc_r_freq_weighted,acc_r_pse,acc_r_freq_0.0_Hz_ws_50,acc_r_freq_0.1_Hz_ws_50,acc_r_freq_0.2_Hz_ws_50,acc_r_freq_0.3_Hz_ws_50,acc_r_freq_0.4_Hz_ws_50,acc_r_freq_0.5_Hz_ws_50,acc_r_freq_0.6_Hz_ws_50,acc_r_freq_0.7_Hz_ws_50,acc_r_freq_0.8_Hz_ws_50,acc_r_freq_0.9_Hz_ws_50,acc_r_freq_1.0_Hz_ws_50,acc_r_freq_1.1_Hz_ws_50,acc_r_freq_1.2_Hz_ws_50,acc_r_freq_1.3_Hz_ws_50,acc_r_freq_1.4_Hz_ws_50,acc_r_freq_1.5_Hz_ws_50,acc_r_freq_1.6_Hz_ws_50,acc_r_freq_1.7_Hz_ws_50,acc_r_freq_1.8_Hz_ws_50,acc_r_freq_1.9_Hz_ws_50,acc_r_freq_2.0_Hz_ws_50,acc_r_freq_2.1_Hz_ws_50,acc_r_freq_2.2_Hz_ws_50,acc_r_freq_2.3_Hz_ws_50,acc_r_freq_2.4_Hz_ws_50,acc_r_freq_2.5_Hz_ws_50,gyr_r_max_freq,gyr_r_freq_weighted,gyr_r_pse,gyr_r_freq_0.0_Hz_ws_50,gyr_r_freq_0.1_Hz_ws_50,gyr_r_freq_0.2_Hz_ws_50,gyr_r_freq_0.3_Hz_ws_50,gyr_r_freq_0.4_Hz_ws_50,gyr_r_freq_0.5_Hz_ws_50,gyr_r_freq_0.6_Hz_ws_50,gyr_r_freq_0.7_Hz_ws_50,gyr_r_freq_0.8_Hz_ws_50,gyr_r_freq_0.9_Hz_ws_50,gyr_r_freq_1.0_Hz_ws_50,gyr_r_freq_1.1_Hz_ws_50,gyr_r_freq_1.2_Hz_ws_50,gyr_r_freq_1.3_Hz_ws_50,gyr_r_freq_1.4_Hz_ws_50,gyr_r_freq_1.5_Hz_ws_50,gyr_r_freq_1.6_Hz_ws_50,gyr_r_freq_1.7_Hz_ws_50,gyr_r_freq_1.8_Hz_ws_50,gyr_r_freq_1.9_Hz_ws_50,gyr_r_freq_2.0_Hz_ws_50,gyr_r_freq_2.1_Hz_ws_50,gyr_r_freq_2.2_Hz_ws_50,gyr_r_freq_2.3_Hz_ws_50,gyr_r_freq_2.4_Hz_ws_50,gyr_r_freq_2.5_Hz_ws_50
2019-01-18 18:27:01.400,0.0415024493264,0.971508948741,-0.078015766097,2.40951258962,-1.73593713175,-1.26235466107,high,A,2,1,0,0,0,0,0,0.97551963104,3.22688207644,,,,,,,,,,,,,,,,,,,,,,,,,,,,,,,,,,,,,,,,,,,,,,,,,,,,,,,,,,,,,,,,,,,,,,,,,,
2019-01-18 18:27:01.600,0.0484781534554,0.963863268972,-0.0870158961965,3.4233222319,-1.42427160059,-0.614414923522,high,A,2,1,0,0,0,0,0,0.968996542216,3.75834942414,,,,,,,,,,,,,,,,,,,,,,,,,,,,,,,,,,,,,,,,,,,,,,,,,,,,,,,,,,,,,,,,,,,,,,,,,,
2019-01-18 18:27:01.800,0.0463347131913,0.973602396585,-0.104820943752,2.80144938116,-1.93280669003,0.895942762746,high,A,2,1,0,0,0,0,0,0.980324416982,3.5194564595,,,,,,,,,,,,,,,,,,,,,,,,,,,,,,,,,,,,,,,,,,,,,,,,,,,,,,,,,,,,,,,,,,,,,,,,,,
2019-01-18 18:27:02.000,0.0428169062367,0.979366619104,-0.115103161634,1.7950715641,-1.44947750409,0.455537468256,high,A,2,1,0,0,0,0,0,0.987036473436,2.35176132719,,,,,,,,,,,,,,,,,,,,,,,,,,,,,,,,,,,,,,,,,,,,,,,,,,,,,,,,,,,,,,,,,,,,,,,,,,
2019-01-18 18:27:02.200,0.0456286579157,0.96733237619,-0.113205438672,1.54162716422,-0.887667520007,-1.13780587337,high,A,2,1,0,0,0,0,0,0.975002241943,2.11167472519,,,,,,,,,,,,,,,,,,,,,,,,,,,,,,,,,,,,,,,,,,,,,,,,,,,,,,,,,,,,,,,,,,,,,,,,,,
2019-01-18 18:27:02.400,0.0448450168172,0.966165888284,-0.112580873102,0.924816871391,-2.06742096843,-0.559880330708,high,A,2,1,0,0,0,0,0,0.973736130687,2.33301986512,0.0449343161571,0.970306582979,-0.101790346576,2.14929996707,-1.58293023582,-0.370495926278,0.976769239384,2.8835239796,0.00250084442598,0.00569034057524,0.0155991693064,0.906669184092,0.425893966038,0.867840723812,0.0062024793984,0.702737793229,,,,,,,,,,,,,,,,,,,,,,,,,,,,,,,,,,,,,,,,,,,,,,,,,,,,,,,,,,
2019-01-18 18:27:02.600,0.0325144962265,0.971842319098,-0.111976777973,2.26873333979,-1.50546667999,-0.91153636992,high,A,2,1,0,0,0,0,0,0.978812282544,2.87132015723,0.0434363239738,0.970362144706,-0.107450515222,2.12583675876,-1.54451849386,-0.312026211086,0.977318014635,2.82426365973,0.00566182740627,0.00570603467708,0.0106111080319,0.900388320186,0.419682039714,0.805299711014,0.006215453839,0.682698391342,,,,,,,,,,,,,,,,,,,,,,,,,,,,,,,,,,,,,,,,,,,,,,,,,,,,,,,,,,
2019-01-18 18:27:02.800,0.0186095373388,0.92958366974,-0.119966105027,12.2355137115,2.30159616305,-5.55134652586,high,A,2,1,0,0,0,0,0,0.93747745588,13.63167594,0.0384582212877,0.964648878167,-0.112942216693,3.59453533869,-0.923540533249,-1.13484814481,0.972064833579,4.46981807903,0.0109776290689,0.0178190589322,0.00492121309175,4.28096115514,1.63371490448,2.30388198233,0.0175818490699,4.51687797856,,,,,,,,,,,,,,,,,,,,,,,,,,,,,,,,,,,,,,,,,,,,,,,,,,,,,,,,,,
2019-01-18 18:27:03.000,0.00378715162237,0.86598279365,-0.175771026825,27.7362598448,3.0636587885,-9.31989224871,high,A,2,1,0,0,0,0,0,0.883649249016,29.4201717683,0.0313669610262,0.946712277678,-0.124767230539,7.75033708263,-0.0907962868278,-2.83748731339,0.955952305584,8.78660396384,0.0169756874048,0.0431557533252,0.0251539670238,10.6789783223,2.19378596596,3.79516311599,0.039337057869,11.061826731,,,,,,,,,,,,,,,,,,,,,,,,,,,,,,,,,,,,,,,,,,,,,,,,,,,,,,,,,,
2019-01-18 18:27:03.200,-0.0287815172898,0.872210454294,-0.280682769579,31.7213336143,-1.27563677927,-8.17634869952,high,A,2,1,0,0,0,0,0,0.916712751878,32.782967125,0.0194338904385,0.928852916876,-0.152363831863,12.7380474243,-0.0618228326912,-4.27613500801,0.944231685325,13.8584715968,0.0285419654923,0.0487495031551,0.0675432260759,13.8570043707,2.17330531211,3.93083962881,0.0386944441938,14.084709799,,,,,,,,,,,,,,,,,,,,,,,,,,,,,,,,,,,,,,,,,,,,,,,,,,,,,,,,,,
2019-01-18 18:27:03.400,-0.0673792778789,0.911354223036,-0.368510715349,16.3812558021,-3.69381738748,-4.52042617511,high,A,2,1,0,0,0,0,0,0.985345946488,17.3903444863,0.000599234472695,0.919523224684,-0.194914711309,15.211318864,-0.52951447727,-4.8399050583,0.945955636082,16.404916557,0.0419407051177,0.0451350126796,0.106895339821,12.7380811868,2.63868270356,3.62107855028,0.0405265921007,12.8644925929,,,,,,,,,,,,,,,,,,,,,,,,,,,,,,,,,,,,,,,,,,,,,,,,,,,,,,,,,,
2019-01-18 18:27:03.600,-0.0695925011626,0.898595630038,-0.394150870517,-3.14341896207,-2.09481778281,2.85504943744,high,A,2,1,0,0,0,0,0,0.983703273996,4.73504504778,-0.0184736851906,0.908261514976,-0.241843044212,14.5332795584,-0.534080613,-4.27075009695,0.947616826634,16.8052540874,0.0437758989357,0.039210499524,0.123964223892,13.7209868398,2.64189799256,4.57189540867,0.0420680265755,12.3667445358,,,,,,,,,,,,,,,,,,,,,,,,,,,,,,,,,,,,,,,,,,,,,,,,,,,,,,,,,,
2019-01-18 18:27:03.800,-0.0327467009295,0.919379545829,-0.383108030904,-10.7730601116,-2.0785373675,13.379639541,high,A,2,1,0,0,0,0,0,0.996545462613,17.3030025141,-0.0293505513833,0.899517719431,-0.287031586367,12.3596473165,-0.629592394252,-1.88888744513,0.950572356645,19.2105344802,0.0359881471131,0.0257281346338,0.116339303188,16.7509466604,2.69388736916,8.61073118258,0.0452040668594,10.354350276,,,,,,,,,,,,,,,,,,,,,,,,,,,,,,,,,,,,,,,,,,,,,,,,,,,,,,,,,,
2019-01-18 18:27:04.000,-0.00441542831772,1.03795017515,-0.370774543223,-7.29830927192,-3.64991272258,12.439907205,high,A,2,1,0,0,0,0,0,1.10219500271,14.8774484499,-0.0331880456594,0.917578803666,-0.328832992733,9.1040101526,-1.62151054186,1.10965484335,0.978025281117,19.4181632319,0.0306886485246,0.062629148812,0.0851962788549,18.5784599906,2.48645147335,10.0863935276,0.0755155749565,10.2318733566,,,,,,,,,,,,,,,,,,,,,,,,,,,,,,,,,,,,,,,,,,,,,,,,,,,,,,,,,,
2019-01-18 18:27:04.200,-0.0105953613541,1.09356076886,-0.363032190481,0.580803185565,-1.65975505518,-6.86750439371,high,A,2,1,0,0,0,0,0,1.15229327352,7.08905746776,-0.0355851311554,0.955508466201,-0.360043186676,4.5781007094,-2.40874618247,1.51838615252,1.0227992852,15.6963108485,0.0276324222542,0.088642652745,0.0404702165474,16.2995525632,1.02414998044,9.61804472038,0.087117437285,9.92279925351,,,,,,,,,,,,,,,,,,,,,,,,,,,,,,,,,,,,,,,,,,,,,,,,,,,,,,,,,,
2019-01-18 18:27:04.400,-0.0369314578976,1.01744026185,-0.357520831376,5.55830659798,2.23906040844,-21.0034124909,high,A,2,1,0,0,0,0,0,1.07905966651,21.8415086478,-0.0369434545901,0.979713434127,-0.372849530308,0.217596206676,-1.82296331785,-0.619457812713,1.04985710431,13.8727344356,0.0274306652377,0.0808323018591,0.0135163899622,9.78262523809,2.16812064758,13.0257835893,0.0713657675633,6.60555482616,,,,,,,,,,,,,,,,,,,,,,,,,,,,,,,,,,,,,,,,,,,,,,,,,,,,,,,,,,
2019-01-18 18:27:04.600,-0.0655099910682,0.972105939388,-0.344257396506,-3.43402772821,2.09058201847,-8.58433756657,high,A,2,1,0,0,0,0,0,1.03334150762,9.4791313458,-0.0366319067883,0.989838720186,-0.368807310501,-3.08495104838,-0.858896750193,-1.29677637796,1.05785636449,12.5541989122,0.0270234426815,0.0740797797618,0.017967256565,5.74679629634,2.43897239757,13.3702983009,0.0651037792589,6.55233889372,,,,,,,,,,,,,,,,,,,,,,,,,,,,,,,,,,,,,,,,,,,,,,,,,,,,,,,,,,
2019-01-18 18:27:04.800,-0.0744811703267,0.961742503324,-0.300628601697,-22.5971679027,-2.05698191581,12.5464483094,high,A,2,1,0,0,0,0,0,1.01038291929,25.9282960683,-0.0374466849823,1.00036319907,-0.353220265698,-6.32724253848,-0.85259077236,0.31845676737,1.06230297204,16.0864074156,0.0282613342207,0.0620299553695,0.0288527851275,9.82625871622,2.43518378993,14.5090849245,0.0597141919915,7.17682452072,,,,,,,,,,,,,,,,,,,,,,,,,,,,,,,,,,,,,,,,,,,,,,,,,,,,,,,,,,
2019-01-18 18:27:05.000,-0.0462535883714,0.849966919648,-0.226783864916,-27.0834598305,-5.98223767905,14.9477252566,high,A,2,1,0,0,0,0,0,0.880916613715,31.5077046829,-0.0396978328893,0.988794428037,-0.327166238033,-9.04564249163,-1.50320749095,0.579804386637,1.04303149723,18.4538577771,0.0283498880262,0.0830617201942,0.0551043135089,13.0345224258,3.22245620916,14.8025599972,0.0939973894504,9.59417979292,,,,,,,,,,,,,,,,,,,,,,,,,,,,,,,,,,,,,,,,,,,,,,,,,,,,,,,,,,
2019-01-18 18:27:05.200,-0.00972593727021,0.770374943032,-0.158002705068,-10.0311518647,-7.57465247612,3.86018538149,high,A,2,1,0,0,0,0,0,0.78647123375,13.1491596327,-0.0405829177147,0.944198556017,-0.291704265007,-9.50111625709,-2.15733078321,-0.850149250615,0.990410869067,18.1658096409,0.0270826400458,0.116494016976,0.082887555465,13.0089752984,4.03999894226,13.8087593109,0.134079686369,9.74774556346,,,,,,,,,,,,,,,,,,,,,,,,,,,,,,,,,,,,,,,,,,,,,,,,,,,,,,,,,,
2019-01-18 18:27:05.400,-0.0080077564518,0.889553105009,-0.12018331032,3.96030697424,-5.70351200929,-1.53222573767,high,A,2,1,0,0,0,0,0,0.897670807632,7.11068184364,-0.040151650231,0.910197278708,-0.251229451647,-8.93786562565,-2.83129027556,0.039063858725,0.947973791419,18.1694137035,0.0276699064119,0.0912083477487,0.0988475959243,13.5928547384,4.27107594328,13.5123768022,0.110883889048,9.74283379539,,,,,,,,,,,,,,,,,,,,,,,,,,,,,,,,,,,,,,,,,,,,,,,,,,,,,,,,,,
2019-01-18 18:27:05.600,-0.026747609389,0.997310280733,-0.112944297246,5.9498059828,-0.187268765629,-1.65797317813,high,A,2,1,0,0,0,0,0,1.00404165498,6.17933134594,-0.0384543421462,0.906842281856,-0.210466695959,-8.87261572818,-3.23567847124,3.26330374419,0.935470789499,15.5590508199,0.0282139403417,0.086735108417,0.096653555667,13.6770370416,3.7818424974,9.06246567964,0.0964347785676,10.6208086244,,,,,,,,,,,,,,,,,,,,,,,,,,,,,,,,,,,,,,,,,,,,,,,,,,,,,,,,,,
2019-01-18 18:27:05.800,-0.032240801851,0.905297197273,-0.142992794199,15.3735116567,4.16360064866,-5.4231358273,high,A,2,1,0,0,0,0,0,0.917087467959,16.8253033619,-0.0329094772767,0.895707491503,-0.176922595574,-5.73802583069,-2.89017536621,3.79017070073,0.916095116222,16.7834128226,0.0249088696408,0.0807638980179,0.0729535262444,16.9390037603,4.40853058722,8.29534225978,0.0836720997015,10.1946209345,,,,,,,,,,,,,,,,,,,,,,,,,,,,,,,,,,,,,,,,,,,,,,,,,,,,,,,,,,
2019-01-18 18:27:06.000,-0.040469949966,0.809530961113,-0.219749361759,31.2542534091,2.20454789284,-9.49184313275,high,A,2,1,0,0,0,0,0,0.839802343319,32.7381043072,-0.0272409405499,0.870338901135,-0.163442722251,3.23721105461,-2.1799203981,0.11712212704,0.887665020227,17.9183808624,0.0157379805974,0.079772696401,0.0490954152639,20.1768086229,4.88694036662,8.51886488916,0.0736014627333,11.6862813253,,,,,,,,,,,,,,,,,,,,,,,,,,,,,,,,,,,,,,,,,,,,,,,,,,,,,,,,,,
2019-01-18 18:27:06.200,-0.0685441931521,0.866291711542,-0.315357247111,27.8749834292,-2.50350087378,-4.96471003858,high,A,2,1,0,0,0,0,0,0.924451096168,28.4241193983,-0.0309560413467,0.873059699784,-0.178204952617,12.3969515979,-1.60013093055,-3.20161708882,0.894920767302,17.4044499816,0.0223610653645,0.0792153534331,0.0772142225716,15.6191529525,4.53962737223,4.53098982728,0.0749368744764,11.0178212606,,,,,,,,,,,,,,,,,,,,,,,,,,,,,,,,,,,,,,,,,,,,,,,,,,,,,,,,,,
2019-01-18 18:27:06.400,-0.0794978653107,0.950624032788,-0.383408430034,5.60674088699,-3.71415334774,8.77835776996,high,A,2,1,0,0,0,0,0,1.02810893709,11.0584828798,-0.0425846960201,0.903101214743,-0.215772573445,15.0032670565,-0.956714409156,-2.38192169075,0.935193717859,17.0560038561,0.0268116538794,0.0654713248019,0.11228763099,12.0176499343,3.72374428648,6.20110771215,0.06974811789,11.2106845549,,,,,,,,,,,,,,,,,,,,,,,,,,,,,,,,,,,,,,,,,,,,,,,,,,,,,,,,,,
2019-01-18 18:27:06.600,-0.0456729069894,0.987453708571,-0.411568232641,-7.96378957389,-3.49354270194,18.9729225274,high,A,2,1,0,0,0,0,0,1.0707657312,20.8709984001,-0.0488622211097,0.919417982003,-0.264336727165,13.0159176318,-0.588386191265,1.0356030201,0.964042871788,19.3493899489,0.0208415560279,0.0731667170662,0.124972261837,14.8590775366,3.23792445339,10.7470853887,0.0852081682262,10.1240730515,,,,,,,,,,,,,,,,,,,,,,,,,,,,,,,,,,,,,,,,,,,,,,,,,,,,,,,,,,
2019-01-18 18:27:06.800,-0.00595338575724,1.03008317155,-0.41503686549,-4.19705083906,-4.60613429178,8.75868405952,high,A,2,1,0,0,0,0,0,1.11056849533,10.7492444067,-0.0453965171711,0.924880130473,-0.314685488539,11.3247748282,-1.32486377896,2.77171255971,0.981797345179,20.1110421257,0.026275074749,0.0809535743644,0.111956427565,16.3288547794,3.6096477118,11.06169419,0.10419278997,9.05003482062,,,,,,,,,,,,,,,,,,,,,,,,,,,,,,,,,,,,,,,,,,,,,,,,,,,,,,,,,,
2019-01-18 18:27:07.000,-0.00997224525933,1.06400440392,-0.402580962625,0.474581207774,-2.26936352593,-15.5727404034,high,A,2,1,0,0,0,0,0,1.13766262517,15.7443793719,-0.0416850910725,0.951331331581,-0.357950183277,8.84161975335,-2.39702447472,1.08011179703,1.01855987138,19.9308881273,0.0298364068149,0.0975104937543,0.0770550953232,16.7182269932,2.40912638398,13.145339306,0.115133318121,9.13884656699,,,,,,,,,,,,,,,,,,,,,,,,,,,,,,,,,,,,,,,,,,,,,,,,,,,,,,,,,,
2019-01-18 18:27:07.200,-0.0506026048784,1.0440032719,-0.374146952516,-6.55163840354,2.85631107789,-21.6588804723,high,A,2,1,0,0,0,0,0,1.11017539039,22.8076649848,-0.0433738668912,0.990410050045,-0.383683115069,2.54063778458,-2.28839727721,-0.947727759567,1.06362204589,18.2758149069,0.0300399386154,0.07329303923,0.0370869361637,13.3709205042,2.65976377282,15.777341133,0.0781459618441,7.00582668206,,,,,,,,,,,,,,,,,,,,,,,,,,,,,,,,,,,,,,,,,,,,,,,,,,,,,,,,,,
2019-01-18 18:27:07.400,-0.0795483617593,0.97221766515,-0.320920741018,-21.3835311452,0.734603125576,1.2725622468,high,A,2,1,0,0,0,0,0,1.02690079964,21.4339557866,-0.0452078949924,1.00806437565,-0.384610364054,-5.66911464449,-1.74871327732,0.09181762133,1.08069699647,17.1107876383,0.0321460926413,0.0445306582898,0.0350506399093,9.16563315559,2.92288985751,15.6648145832,0.0463994177076,5.37122101652,,,,,,,,,,,,,,,,,,,,,,,,,,,,,,,,,,,,,,,,,,,,,,,,,,,,,,,,,,
2019-01-18 18:27:07.600,-0.0660232380293,0.873349887824,-0.233903059779,-28.1126328101,-7.89733584791,20.3275024051,high,A,2,1,0,0,0,0,0,0.906537222565,35.579423703,-0.0429621237788,0.995185351486,-0.359692802345,-11.2890102607,-2.44591036068,2.01667506052,1.06043504405,21.1976111089,0.0296448034966,0.0689467654067,0.0708924176729,11.0191776914,3.84037830956,17.5426827001,0.0846963663687,8.34862197929,,,,,,,,,,,,,,,,,,,,,,,,,,,,,,,,,,,,,,,,,,,,,,,,,,,,,,,,,,
2019-01-18 18:27:07.800,-0.0276538597967,0.831222199333,-0.140192442769,-16.1140463366,-10.2778855244,12.0943864199,high,A,2,1,0,0,0,0,0,0.843415082646,22.6179486927,-0.0399589492467,0.969146766613,-0.314463504033,-12.6473863878,-3.57663416443,0.870252375937,1.02254326929,21.4887694909,0.0302223497719,0.0964617767292,0.108022113892,11.029634185,5.02620356379,16.4005415144,0.121855318608,8.3653988373,,,,,,,,,,,,,,,,,,,,,,,,,,,,,,,,,,,,,,,,,,,,,,,,,,,,,,,,,,
2019-01-18 18:27:08.000,-0.00467103983025,0.909266754898,-0.0886598202647,1.0037784996,-4.61108260634,-2.10392025946,high,A,2,1,0,0,0,0,0,0.913590944518,5.16683022141,-0.0397452249255,0.949010697171,-0.260067329829,-11.780581498,-3.57745888352,-0.940181677227,0.989713677489,20.5583671267,0.0305140500849,0.0937699039668,0.127642097608,11.9891799459,5.02640667493,15.9489255406,0.119915861696,9.9576493176,,,,,,,,,,,,,,,,,,,,,,,,,,,,,,,,,,,,,,,,,,,,,,,,,,,,,,,,,,
2019-01-18 18:27:08.200,-0.00869837729411,0.99391860412,-0.0861743386745,4.69566830624,0.390078792829,-1.91174694932,high,A,2,1,0,0,0,0,0,0.997685255995,5.08490301826,-0.039532913598,0.937329730538,-0.207332892504,-11.0770669816,-3.13421849706,1.33665056512,0.96638411596,18.7817877345,0.0307660274847,0.0799230530891,0.122233904436,12.9383953989,5.27589404398,14.3357560201,0.0967554791508,11.7736154774,,,,,,,,,,,,,,,,,,,,,,,,,,,,,,,,,,,,,,,,,,,,,,,,,,,,,,,,,,
2019-01-18 18:27:08.400,-0.0187709330916,0.952422231776,-0.109770471921,4.82404746865,3.13385616085,-1.47400559187,high,A,2,1,0,0,0,0,0,0.958910846751,5.93844936844,-0.0342276349669,0.92206622385,-0.163270145738,-9.18111933623,-3.08796098323,4.70079637852,0.941173358686,15.9702517984,0.0312166241523,0.0622722465049,0.0946023026622,14.4762468174,5.33975217776,9.36771030041,0.0668947519377,12.6048034803,,,,,,,,,,,,,,,,,,,,,,,,,,,,,,,,,,,,,,,,,,,,,,,,,,,,,,,,,,
2019-01-18 18:27:08.600,-0.0280172302174,0.859626953856,-0.159616624384,17.3458612754,4.64905558872,-10.5952225608,high,A,2,1,0,0,0,0,0,0.874769073393,20.8506921316,-0.0256391130432,0.903301105301,-0.136386126299,-2.72622059947,-2.43555223938,2.72283224392,0.915818070978,15.8730411892,0.0219745885718,0.0610899021964,0.0558052208378,16.447468801,6.08704152531,11.2916901727,0.0558167187642,12.556395112,,,,,,,,,,,,,,,,,,,,,,,,,,,,,,,,,,,,,,,,,,,,,,,,,,,,,,,,,,
2019-01-18 18:27:08.800,-0.0521540913268,0.849942636447,-0.229625910353,27.0348950819,1.10862969594,-11.3146121422,high,A,2,1,0,0,0,0,0,0.881958385185,29.3280592577,-0.0233275885928,0.899399896738,-0.135673268061,6.4650340492,-0.934557982067,-2.55085351396,0.911721598081,14.831147115,0.0170559102089,0.0640603074492,0.0543178964572,14.7443226997,5.55828418661,8.45891481643,0.057510326206,10.7191233869,,,,,,,,,,,,,,,,,,,,,,,,,,,,,,,,,,,,,,,,,,,,,,,,,,,,,,,,,,
2019-01-18 18:27:09.000,-0.0828142040268,0.917308381538,-0.281960236417,16.2841504224,-5.46221184149,3.48802396032,high,A,2,1,0,0,0,0,0,0.963231246456,17.5264264563,-0.0325209792978,0.913747593772,-0.159301233669,11.864733509,-0.131945701582,-3.98524725722,0.931690958716,13.9825600756,0.0298909704179,0.0546918492934,0.0809715246192,9.986339761,4.0941269293,5.78629890903,0.0492585012792,10.1666875928,,,,,,,,,,,,,,,,,,,,,,,,,,,,,,,,,,,,,,,,,,,,,,,,,,,,,,,,,,
2019-01-18 18:27:09.200,-0.0832339844309,0.990843963276,-0.306910293698,1.23129721899,-7.70887499988,14.2913762522,high,A,2,1,0,0,0,0,0,1.04062172959,16.2845411906,-0.0456148033979,0.927343795169,-0.195676312575,11.9026532956,-0.648244433839,-1.25269783861,0.952862756229,15.8355119038,0.0323569187238,0.0628818320579,0.0912592856846,9.93716161956,4.88993211528,9.51946314668,0.0647778233841,9.20640129883,,,,,,,,,,,,,,,,,,,,,,,,,,,,,,,,,,,,,,,,,,,,,,,,,,,,,,,,,,
2019-01-18 18:27:09.400,-0.0452243486246,1.02842920949,-0.331966557881,-0.367515689776,-6.4195701016,12.0830286705,high,A,2,1,0,0,0,0,0,1.08162547871,13.6874223258,-0.0517024652864,0.93309556273,-0.236641682442,11.0587892963,-1.78318591624,1.07976476469,0.966852793348,17.2692651217,0.0270178575078,0.0712154236607,0.0873575018251,10.8450881127,5.36765707343,10.9349518337,0.0829183784158,7.75234070539,,,,,,,,,,,,,,,,,,,,,,,,,,,,,,,,,,,,,,,,,,,,,,,,,,,,,,,,,,
2019-01-18 18:27:09.600,-0.00593102125785,1.01659375468,-0.35536565266,2.28338054465,-5.90532693107,6.75835657868,high,A,2,1,0,0,0,0,0,1.07693211771,9.26078271633,-0.0495624799807,0.943790816548,-0.277574212566,10.6353448089,-3.28971643156,2.45182512645,0.986523005175,17.8229873464,0.030439727905,0.0790825897819,0.0722535958095,11.1815888188,4.96499045088,11.066121472,0.0939256803353,6.84693635215,,,,,,,,,,,,,,,,,,,,,,,,,,,,,,,,,,,,,,,,,,,,,,,,,,,,,,,,,,
2019-01-18 18:27:09.800,-0.00191893617858,0.999223283672,-0.357849211113,1.75911896872,-3.88000344726,-2.3429291468,high,A,2,1,0,0,0,0,0,1.06137029864,4.86191765498,-0.0452127643076,0.967056871517,-0.31061297702,8.03755442448,-4.71122627089,3.82720736212,1.01762320938,15.1581916003,0.0355670479368,0.0692988120797,0.0491602147656,11.1211951443,3.11306431406,9.52585302832,0.0792716935512,8.37398591019,,,,,,,,,,,,,,,,,,,,,,,,,,,,,,,,,,,,,,,,,,,,,,,,,,,,,,,,,,
2019-01-18 18:27:10.000,-0.0393003393013,1.03186557713,-0.355083397859,2.42124098813,1.50849834731,-17.953469449,high,A,2,1,0,0,0,0,0,1.09195938815,18.1786974353,-0.0430704723033,0.997377361631,-0.331522558271,3.93527874219,-4.64458149567,2.72073114432,1.05262337654,13.2999646299,0.0354522573419,0.0423793778174,0.0312380646411,6.1331384643,3.26323302302,11.7599900197,0.0473093219856,5.25810728971,,,,,,,,,,,,,,,,,,,,,,,,,,,,,,,,,,,,,,,,,,,,,,,,,,,,,,,,,,
2019-01-18 18:27:10.200,-0.0934650548528,1.06026313242,-0.35453854913,-4.73074991916,6.13855124226,-20.2080680426,high,A,2,1,0,0,0,0,0,1.12186951526,21.6431933911,-0.0448456141077,1.02120315344,-0.343618943723,0.432795351926,-2.71112098171,-1.22861752284,1.07906308801,13.9860924523,0.038014354451,0.0249704897119,0.0203688991072,2.72316061597,5.41149265397,14.9869529313,0.0275702175693,6.11817488489,,,,,,,,,,,,,,,,,,,,,,,,,,,,,,,,,,,,,,,,,,,,,,,,,,,,,,,,,,
2019-01-18 18:27:10.400,-0.115821938969,0.980460438786,-0.313094251768,-26.3496045813,5.82006098087,2.42085406414,high,A,2,1,0,0,0,0,0,1.03573423428,27.0930859411,-0.050276939864,1.01947256603,-0.344649603402,-4.16402161479,-0.456298318248,-3.20703788751,1.07824850546,15.7875165774,0.046070449617,0.0277053985913,0.0181786607331,11.1977944462,5.7222274109,13.2061148267,0.0289698282504,8.1755728613,,,,,,,,,,,,,,,,,,,,,,,,,,,,,,,,,,,,,,,,,,,,,,,,,,,,,,,,,,
2019-01-18 18:27:10.600,-0.0777264680478,0.833464949669,-0.207853193273,-37.8364096806,-0.208624956587,22.4306609462,high,A,2,1,0,0,0,0,0,0.862501116588,43.986042927,-0.0556939597679,0.986978522726,-0.323964042634,-10.4088372799,0.57885920592,-1.48243250823,1.04172777844,20.8372866776,0.0472531796412,0.0800267209579,0.0593925284274,17.3918539953,4.93539983878,15.9854135257,0.0924437186488,13.9423483107,,,,,,,,,,,,,,,,,,,,,,,,,,,,,,,,,,,,,,,,,,,,,,,,,,,,,,,,,,
2019-01-18 18:27:10.800,-0.0165733489858,0.784556699696,-0.0934692198036,-19.4381212676,-7.57025595593,15.3377014544,high,A,2,1,0,0,0,0,0,0.790278676155,25.8919759686,-0.0574676810559,0.948305680229,-0.280314637158,-14.029087582,0.30137103511,-0.05254169561,0.993952204846,23.6091522197,0.0451652754815,0.112379162064,0.108025497744,16.457103205,5.3980045905,17.2070102183,0.13492329564,12.7857763976,,,,,,,,,,,,,,,,,,,,,,,,,,,,,,,,,,,,,,,,,,,,,,,,,,,,,,,,,,
2019-01-18 18:27:11.000,0.0100122419483,0.884200692403,-0.0376509046354,4.80760075229,-8.40546385546,-1.50436744018,high,A,2,1,0,0,0,0,0,0.885058585662,9.79938615496,-0.0554791513681,0.929135248351,-0.226948252745,-13.5210072847,-0.452872366256,0.0872185888267,0.964566919349,24.4320636363,0.048256941461,0.111765106097,0.137210635029,17.0773869036,6.33409899503,17.1880815041,0.13649405074,11.4242560037,,,,,,,,,,,,,,,,,,,,,,,,,,,,,,,,,,,,,,,,,,,,,,,,,,,,,,,,,,
2019-01-18 18:27:11.200,0.00179762554346,0.994334462169,-0.0399594586879,7.15757457656,-3.11863427335,-4.18767952063,high,A,2,1,0,0,0,0,0,0.995138690059,8.85965085754,-0.0486294905606,0.922880062524,-0.174427596216,-12.7316183533,-1.22406113637,2.38151691022,0.948430136334,22.8788892067,0.053630271471,0.105754288459,0.138657469573,18.0438098847,6.32921747373,15.0889113537,0.123528577177,12.972967835,,,,,,,,,,,,,,,,,,,,,,,,,,,,,,,,,,,,,,,,,,,,,,,,,,,,,,,,,,
2019-01-18 18:27:11.400,-0.00580008841564,0.996122189709,-0.0539888681461,0.557398338786,-1.19829820736,0.908952128648,high,A,2,1,0,0,0,0,0,0.99760105039,1.60399671883,-0.0340186628211,0.912189905405,-0.124335982719,-11.8502603103,-2.44686937797,5.9010202721,0.927718725523,19.5390230947,0.0508415228521,0.09135039374,0.112374358948,18.6323304646,5.23671675508,10.5445142554,0.0959784687287,15.6566621257,0.0,-0.00167650280432,0.0152293521828,50.0355463634,-0.101257696511,-0.374203908721,-0.906177741029,1.06437599227,-0.105416724053,0.258668979924,0.693904800907,-0.143504011475,0.411503521199,0.0155271034493,-0.789168365293,0.195768562571,-0.615907359987,-0.096240315388,0.367628837356,-0.0927841073439,0.01979150921,0.00325100960724,0.00942745074134,0.00779064471743,0.00585178454743,0.00774342391549,0.00746344381424,0.00622821785572,0.00771235750185,0.0,-0.0918989036893,0.402403531938,796.49366943,-97.6757360072,-40.931772147,-88.4808714973,-76.0161062844,-44.8592129257,-30.2560954975,32.458051455,16.0507639973,-20.3108221143,-27.8793757401,74.1130328905,3.94199110719,24.068820632,-9.75336858833,-36.9469693513,-40.371919354,-4.15445857063,20.483704871,-36.8053690378,36.3736965217,40.1520617063,-16.7533230582,2.97316814559,4.21085594651,0.407911135121
2019-01-18 18:27:11.600,-0.00749401979116,0.932708155655,-0.0684525329502,7.67931023038,-3.60082894204,-1.80625581547,high,A,2,1,0,0,0,0,0,0.935246712491,8.67181265683,-0.0159640096248,0.90423119155,-0.083562362916,-6.17877450836,-4.01701769845,5.19650195883,0.910970805224,16.4688108806,0.0315602912429,0.0861447134653,0.064278036898,18.5148444591,3.32605780144,10.9567000136,0.0809514616881,15.6852193071,0.0,0.00574722602612,0.0189655769281,49.9952734449,-0.157216980766,-0.424594760752,-1.1637726098,1.79151275194,0.108042719953,0.196098213047,-0.22606404039,0.158503582203,-0.490031508696,-0.530845379639,-0.11621409634,0.11541540402,0.239197118325,-0.279977043528,0.120010032708,0.0790017836143,0.0360050246727,0.0332671658428,0.0293026754929,0.0303153330544,0.032286211177,0.0323588275582,0.0325090136645,0.0340943920501,0.0325712746532,0.0,-0.224101972418,0.612131832049,801.93860001,-95.9391212717,-49.7953285248,-113.40287992,-95.4284166129,-75.3992333328,-7.80568652465,185.813269327,-17.4213649705,54.44333286,-11.5862754508,-72.2319313855,22.9937871035,-0.0654449889821,9.42538307704,-12.8101821926,-8.31801779199,8.12592370806,51.9025636009,-3.28616499907,-19.3994230526,-39.3333453647,13.5142009921,-16.7122319181,-6.71861002551,-5.69619203113
2019-01-18 18:27:11.800,-0.0216007619157,0.891499664258,-0.113937346556,21.4239837215,-2.13443064326,-9.8094564608,high,A,2,1,0,0,0,0,0,0.899010546783,23.6594232543,-0.00660972526942,0.913903643982,-0.0679097217965,3.69795772532,-4.3379853129,-0.176850942339,0.917055710257,13.0810409352,0.0115966875254,0.0796209156831,0.0305376102978,13.3297013186,2.9575483083,8.4281836671,0.0778938718991,9.5475175743,0.0,0.0208132779705,0.0316215546693,49.9252874495,-0.23997563456,-0.476936772733,-1.28918061756,2.07092757222,0.264935558077,0.019720320104,-0.993328855136,0.320222771345,-0.839277723112,-0.351372385788,0.764744884173,-0.140654757035,0.643603322833,0.233140785664,-0.373887950813,0.0987490198049,0.0194693823822,0.0391020010685,0.0387679207337,0.0397708291757,0.0390238465983,0.0373155988506,0.0375436601973,0.0358113110871,0.0373948207481,0.0,-0.583842708789,0.708330782006,821.83967384,-78.4428639994,-41.7958720735,-109.896932922,-80.042933007,-67.4237655224,27.9812920463,216.832047683,-29.7489420513,72.2715268053,21.3471540537,-106.206064962,-3.30748422594,-30.1225751818,-1.63577085684,33.0671969253,33.6543229895,-19.3669326329,-100.478276928,22.0818474189,-27.0957398208,4.36654219273,-31.3254065242,4.46890759883,-16.0095809121,-14.3453932961
2019-01-18 18:27:12.000,-0.0521626274241,0.884983473927,-0.18743260697,24.0743768151,1.95166565075,-11.0168819079,high,A,2,1,0,0,0,0,0,0.906116808684,26.5472466523,-0.0125412716758,0.930641439687,-0.0835702863243,10.9500407391,-2.75099837845,-4.56928150272,0.936362065678,13.1902527158,0.0220776332442,0.0531455971471,0.0580062766731,9.51597332638,3.39812979545,4.82111309819,0.0492911907568,9.72545665629,0.0,0.0276576377472,0.0245160988083,49.8510798412,-0.322755659367,-0.502449196732,-1.23968817785,1.86212032489,0.333854423665,-0.151805317058,-1.0447866547,0.224252414548,-0.22125621786,0.342607522653,0.497533091207,-0.0782323902289,-0.206565499276,0.289822164937,0.174922427841,-0.0570726566189,0.0516153925271,0.0343104642423,0.0383664238509,0.0355150075985,0.0344348782728,0.0372423516126,0.0366386671637,0.0384325752058,0.0368337915076,0.0,-0.783830734022,0.345717929874,844.867464033,-56.8053154196,-28.8404822843,-89.9770951426,-45.222493341,-35.7687677212,46.2792036661,91.4177551412,-22.624511296,0.348345702784,13.5282564225,11.8152818457,-41.3804767975,-18.6895180554,-32.3569005556,-31.4912815243,-46.7949227016,-20.1739600017,35.4223983607,-63.3891824405,23.7773743025,-7.57136827773,2.58086540654,-33.6502098578,-4.34418736179,-8.55262624231
2019-01-18 18:27:12.200,-0.0850818449326,0.902305662386,-0.244449753948,15.6255504246,0.650525793098,-2.73119326702,high,A,2,1,0,0,0,0,0,0.938695962981,15.8757811317,-0.028390286156,0.933658934684,-0.11803676121,12.7530323512,-1.24166677036,-4.77375247386,0.945301628565,14.2029852119,0.0337147910568,0.0504258149983,0.0818164125459,9.13668310767,2.17556089198,4.68934275589,0.04252531655,9.61751381651,0.0,0.0134255630494,0.0180869939562,49.8027393307,-0.374409543103,-0.470283480903,-0.99363755562,1.2417928838,0.31479857439,-0.205607746069,-0.323429392018,-0.02497841,0.694693346254,0.637248302411,-0.488001333921,0.195965317132,-0.555184672392,-0.240430749469,0.365584978477,0.0387932671795,0.0272930886169,0.0228839248854,0.0156748178023,0.0167598267329,0.0177294448907,0.0131409182566,0.0129006012763,0.0103573434562,0.0115337521213,0.0,-0.58003986772,0.361079182528,858.391483838,-43.9129317278,-24.0551878562,-68.3223693796,-10.7531670012,-2.95447700909,27.3867773752,-112.104734181,-10.8026284485,-88.9606005654,-30.887809455,91.1268693715,-26.108684262,7.82940161297,-13.5399340685,-42.5600142893,-25.4735854305,9.75109253956,26.6069156665,33.7305565239,-43.5173323558,-26.018071666,-8.6777391826,23.7490923154,-11.7715183149,-5.10795663777
2019-01-18 18:27:12.400,-0.0958115834979,0.951632175695,-0.276704055903,4.54776653662,-3.84844120259,7.30439303069,high,A,2,1,0,0,0,0,0,0.995664999839,9.42586005138,-0.0446584876628,0.926541886938,-0.157494194079,12.3180643445,-1.36330125857,-2.85840704864,0.945389346861,14.2973534109,0.0393187759751,0.0425474267997,0.0929597095454,9.51080382964,2.31727521949,6.83339602462,0.04264903994,9.55718714569,0.0,-0.00283475465301,0.0111576550593,49.8234020886,-0.351541104641,-0.34133057121,-0.545782717195,0.392493674055,0.245226214848,-0.0884761257371,0.68571257103,-0.192092917915,0.898109851902,0.136185418093,-0.653571393197,0.164642216104,0.288463587884,-0.17089100802,-0.332330706166,0.0671169808923,-0.0408993496365,-0.0260033388825,-0.026233506122,-0.0293869613159,-0.0338099543579,-0.0315493748776,-0.0325756161258,-0.0307649799305,-0.0321406012591,0.0,-0.442248808958,0.495967693463,865.705669164,-36.6201450286,-24.2475579587,-44.1440741516,19.1950174897,23.3916933715,-13.9198299039,-246.057815317,1.20660412977,-89.9184562159,-45.1527950651,15.215548823,23.7133139446,4.45804372326,21.8647715473,39.2598414294,50.2784242681,-6.7582450054,-85.4226974753,-2.1884608816,24.8072827741,32.0707235132,-6.98271920093,-32.1068194217,6.77269182752,-2.07516923684
2019-01-18 18:27:12.600,-0.066785197058,1.01352866951,-0.306315235573,-4.99762078134,-4.72483080292,12.6219942512,high,A,2,1,0,0,0,0,0,1.06090982181,14.374107919,-0.0548226724366,0.929442966905,-0.19954858865,11.3922278245,-1.95105669116,-0.90623336155,0.955940808764,16.4257052776,0.0348986615354,0.048427681867,0.0938407750099,11.0331644993,2.68509733134,9.33874127227,0.061718102848,7.32672406769,0.0,-0.00764462347259,0.0104781040862,49.9105757797,-0.257493460296,-0.127881182709,0.0364073896826,-0.494071130756,0.135995324021,0.118597831497,1.25175772765,-0.159743453177,0.124144570985,-0.53841471103,0.206346826057,-0.178202167203,0.514070889413,0.258822783878,-0.228210719857,-0.145757600417,-0.0506433424367,-0.0647395430876,-0.0604980730161,-0.0595482925797,-0.0550171636557,-0.0556749243045,-0.0545494851815,-0.0562271993561,-0.0550455790947,0.0,-0.775264817241,0.414075331708,877.746757218,-24.1365968421,-18.6120019981,-10.0900822028,47.8694160388,43.6526463831,-46.3762481068,-207.55473401,11.4724901146,6.85338037478,-2.43795876518,-89.3548490604,24.2814875269,-15.7889643859,-2.3290006632,10.462697612,-25.7296849405,-16.3275768873,61.7798747495,-46.3800281726,-11.8315750014,-46.0678104287,3.11175931834,18.6541372751,-20.693480417,-10.0820121107
2019-01-18 18:27:12.800,-0.0198441365258,1.04676188811,-0.317004331495,-6.77810672501,-3.32423518148,10.5648854131,high,A,2,1,0,0,0,0,0,1.09389029904,12.9849941898,-0.0568810252257,0.948451922314,-0.240973888408,8.98265833191,-1.90495773107,1.15562350988,0.982381406523,17.1445688664,0.0317731289011,0.0682806376005,0.077902244152,13.3431086639,2.65329449536,10.4050895789,0.0817958508537,6.58816333556,0.0,-0.0334409899716,0.017561606787,50.0256537962,-0.132510384904,0.117721629558,0.633813840323,-1.24884761143,-0.0164756571005,0.261635825063,0.930818571392,-0.00798908412369,-0.823316863265,-0.543001804758,0.679305522371,-0.274082690674,-0.410842799545,-0.0133372007712,0.338570076883,-0.0855179500361,-0.0531700072972,-0.0524917688507,-0.0568203741342,-0.0546559410243,-0.0576519677375,-0.0590112272989,-0.0602957591805,-0.0589876568985,-0.0600104897405,0.0,-0.266233177788,0.300111411739,887.86043125,-13.2912329667,-14.0850450288,22.7162633772,62.0212431352,44.0802784807,-59.1920846505,-29.4809478106,5.01275048377,88.4950495957,34.8525005233,-63.3249041265,-30.3404038485,-15.8381387956,-34.7427142661,-59.7951739851,-46.2035441589,5.98789682251,-7.1746255621,47.6803250665,-26.2922373046,25.6246531293,-19.900141032,-25.1246351788,11.9270197831,0.0653691613103
2019-01-18 18:27:13.000,-0.00743820749143,1.05144509059,-0.297048536763,3.37577790796,-2.36004207282,-2.49656272583,high,A,2,1,0,0,0,0,0,1.09262525078,4.81648217202,-0.0545205994883,0.97510949337,-0.271492420109,5.97462402966,-1.94255963599,2.37443913237,1.01465052386,14.004078686,0.0352537209075,0.0726794383605,0.048500715003,11.9377858294,2.65878990959,9.22520311033,0.0805084286609,7.31275328575,0.0,-0.0826632386443,0.0201802238894,50.1808015911,0.0333752500446,0.391597173641,1.17521321345,-1.68481973546,-0.15133695027,0.267682171498,-0.0546785561095,0.121537863743,-0.90403507431,0.113962296921,0.00241825324052,0.0268610627625,-0.608622835202,-0.393607546793,-0.114633705276,0.0368725428662,-0.0888385642166,-0.0805691923095,-0.0834744076421,-0.0912395932402,-0.093936784883,-0.0931301745668,-0.0934586586132,-0.095390366119,-0.0950926288054,0.0,0.317057039004,0.361097445409,879.045237482,-21.1064406725,-27.3698869669,34.1210542951,43.5335597379,10.9951200326,-57.7388894984,153.344045286,-20.9176328436,57.994951419,12.561304421,50.2607294789,-40.8074436039,6.92222758482,4.22598866326,14.5634728493,55.0710265274,4.63360291619,-57.9338519576,-23.9808759046,49.5531898837,-0.124073182953,30.9400381154,27.5171972903,-4.20297448553,8.63632196634
2019-01-18 18:27:13.200,-0.0516431453629,1.05961325985,-0.293003563858,11.6086286669,0.561194448266,-19.6882044143,high,A,2,1,0,0,0,0,0,1.10059000693,22.8626462115,-0.0544340191448,1.00421445769,-0.28908757959,3.89699933829,-2.17430483641,0.92921871464,1.04706272356,13.3899786126,0.0352613071856,0.0637920015083,0.0256933301712,8.84076313162,2.2859299123,12.0035215738,0.0658950054394,6.10347844532,0.0,-0.0817184280439,0.0284684662505,50.397742349,0.258903612854,0.697058536176,1.60503696729,-1.68386619455,-0.208647264103,0.139176558073,-1.01597047761,0.106938282738,-0.0410583300815,0.535707144632,-0.787007823319,0.143908515992,0.286499452995,-0.0543352700485,-0.490344523167,-0.182935080286,-0.121609602345,-0.136284468991,-0.133128509056,-0.127340194748,-0.122209248614,-0.124008653504,-0.123462633349,-0.121874739528,-0.121842059074,0.0,0.348818662523,0.493676316387,872.487711925,-26.2943253398,-36.5456944364,43.6180910517,17.7238846323,-22.6689507817,-22.1778998625,233.566579628,-22.9280395428,-30.9016479097,-19.8671122227,92.2420918771,31.0200737408,24.4289311394,43.267314942,62.4339527528,14.6429524165,1.47245680764,89.7675029765,-0.912411614754,-36.9955834376,-11.0231604726,-21.5432812359,-12.2558155953,11.5968669235,-1.94497071215
2019-01-18 18:27:13.400,-0.111041377155,1.05751753444,-0.314048831392,-0.998382877977,4.59053135577,-17.7896839783,high,A,2,1,0,0,0,0,0,1.10873810775,18.3995272371,-0.0587606078485,1.03008310303,-0.300687425831,1.12634378786,-1.51763724263,-1.58052973724,1.07540308103,13.8106029635,0.0409135343345,0.0419232437718,0.0149928389111,6.79914887514,3.50209778473,14.2802544044,0.0423135953535,6.38932014931,0.0,-0.0389956768644,0.0299485700416,50.5897677049,0.454136404442,0.929698135459,1.78020913866,-1.3299576442,-0.249467810546,-0.137009044115,-1.35934496156,-0.114272617842,0.736084837712,0.0890071750834,-0.515012455015,-0.199527550744,0.368123110351,0.163880855748,0.113521011058,-0.186051051761,-0.102505269287,-0.0878332132866,-0.0817911703206,-0.0768878450806,-0.0784584264554,-0.0729438402393,-0.0711656684567,-0.0707069701006,-0.0702873465228,0.0,0.199621757444,0.391215154136,858.104272038,-38.8005100255,-50.9054083887,40.3696302135,-18.4181031358,-53.1819689702,20.8875931905,147.780733104,-5.79904186858,-85.3967761684,-23.990044342,-7.31302733109,51.7621753878,-1.42634388424,-8.73585354142,-38.24145651,-54.3222712834,7.64318577693,-35.0346764487,41.8215236225,25.8552750836,37.6548056506,27.8269887566,16.1050751068,2.10021808018,16.1599263055
2019-01-18 18:27:13.600,-0.122053789843,0.980681071024,-0.285341293786,-24.9547675237,4.02081844626,8.29280123576,high,A,2,1,0,0,0,0,0,1.02861661693,26.6022171158,-0.063134308906,1.03492458559,-0.302126965478,-3.79074522219,-0.206093967821,-1.41579503639,1.08089501721,16.6733291409,0.0466648968358,0.0314107143766,0.012424123167,12.2848994685,3.90498179809,14.4083747595,0.0303382438911,7.73750961315,0.0,-0.0239187900915,0.0246681833485,50.6330383753,0.493402295995,0.956116677972,1.56327754404,-0.813454977856,-0.355290417565,-0.501726313322,-0.916731604783,-0.401302818835,0.524522862248,-0.654187361857,0.383883090599,-0.368761517644,-0.50253007718,-0.194603356907,0.224344587592,0.11908357172,0.0104541805359,0.0240453814699,0.0248561909027,0.0214071531245,0.026807824485,0.0252072875459,0.0258363471453,0.0263215777425,0.0269361720604,0.0,-0.936927094871,0.288225166732,867.316144667,-27.1930273123,-38.8730379904,54.642282415,-27.677819542,-42.2428250661,74.2412310221,-20.8920280781,35.9934199968,-26.7380644386,21.3657494377,-79.0169246445,-6.23464746713,-10.2413227217,-27.6168853782,-29.6409188064,38.4979375568,0.6618609886,-38.7092375963,-49.3436102717,3.91554717157,-46.4550136146,-23.0016510578,-12.8335298266,-10.3973657807,-25.1245426106
2019-01-18 18:27:13.800,-0.0688207927343,0.837797762422,-0.185798496328,-29.5694874312,-1.49583653267,26.3838380506,high,A,2,1,0,0,0,0,0,0.860907935536,39.6572694995,-0.0634735748521,1.00563610107,-0.28204084227,-7.8860563305,0.332071743888,0.877845596838,1.0475613695,20.8871894043,0.0467041314858,0.087392759567,0.0487151952427,16.2299189004,3.33919551737,17.7887698485,0.0958437904719,11.9647871802,0.0,0.00255275182746,0.0149452360648,50.5102430369,0.360053428868,0.762422700681,0.977442741221,-0.254824726815,-0.474001919608,-0.738568915538,0.0432966798436,-0.440157137756,-0.366490184043,-0.607934084558,0.609722385541,0.0768767153427,-0.376661404846,-0.128614684088,-0.245976763301,0.0978100815644,0.110178087541,0.0895821075514,0.0893960268795,0.0959288431668,0.0940055134645,0.0954285796672,0.0956707528274,0.0963940084091,0.0958089461595,0.0,-0.298375367734,0.449554463551,902.238369119,10.2723331356,0.163095757139,84.8873234538,-8.7958569557,3.51658133448,105.438232961,-161.457039014,55.6399917306,67.914716687,40.5867593577,-28.2364947784,-58.9023530456,-8.23019642638,2.63960261271,35.6959084551,1.48630447752,-34.9780316209,51.432516432,-6.6444179085,-68.3754278827,2.43554530467,-26.9720871541,-34.1365829937,-25.1990361868,-10.0740081818
2019-01-18 18:27:14.000,-0.000592869213319,0.772076450724,-0.10229660353,-9.55501384323,-5.73650884972,15.078055208,high,A,2,1,0,0,0,0,0,0.778824108737,18.7497619234,-0.0602650303,0.959855194842,-0.246256220943,-8.34887418354,-0.0699738674857,1.63004056266,0.995050337778,21.8479840265,0.0507839860454,0.1252764174,0.0839859062914,16.231598826,3.95576489602,18.3663501688,0.141038332204,11.4224849356,0.0,0.0787549784204,0.0139551830774,50.292521683,0.127970720258,0.434323556759,0.179375102225,0.295427765136,-0.473375547233,-0.627994399331,0.954212670555,-0.082418263441,-0.825491746169,0.300522341867,-0.0467859729766,0.485654640773,0.655228777517,0.390252172608,0.0926625006384,0.0123264986761,0.11102374732,0.121985824294,0.125039154861,0.121538066303,0.121247743053,0.12199323871,0.122097456649,0.12098256033,0.12191311827,0.0,0.0327635890008,0.465570440122,903.685128528,14.0955447428,5.67021591203,70.0946996032,-21.4683067023,14.2418868316,47.7453013783,-223.182716784,-8.64934017094,53.0051044453,-28.8287279203,32.32276912,-39.4237338355,-24.218556009,-8.33704591948,-25.2145282335,-75.1427693658,-1.32943352402,-59.074885862,22.6650571981,66.5750215016,6.16124481613,35.7715049021,41.5929949408,23.5929651672,8.86810497669
2019-01-18 18:27:14.200,0.028944985174,0.87422571949,-0.0886147361995,6.50342442408,-5.34011479108,-2.93689998624,high,A,2,1,0,0,0,0,0,0.879182001781,8.91272891716,-0.0542011648558,0.930318632992,-0.211517254182,-7.82759976419,-0.566652653862,1.55665101925,0.959476462944,22.5306918174,0.0597364161318,0.120150031971,0.100297921987,16.7261289447,4.45623638582,18.3870055623,0.138398453726,10.2646776889,0.0,0.105757133528,0.0184008703369,50.0695086821,-0.109653216196,0.0814326373805,-0.633150214566,0.796619834617,-0.263034569364,-0.13670524907,1.27098478594,0.443643997688,-0.251100577722,0.951296082568,-0.459729025449,0.209888708738,0.560894840001,0.260821518083,0.474011927852,0.197229199532,0.108026019479,0.115508839314,0.109484246789,0.106161714556,0.107151497669,0.103239099189,0.101865467104,0.102697921591,0.101138647972,0.0,-0.508434159964,0.338427335092,897.720408995,10.338812852,3.60349414271,38.8267034333,-35.7335730882,13.4166417067,-40.7245663453,-134.283995737,-69.9366383826,-24.767364167,-63.1786541056,39.3435038403,49.6301122606,8.4587446053,-0.613757281164,-21.7097785028,57.971079483,37.8430655021,21.9164154667,-22.2059291614,-32.1589464071,-9.28778979754,-34.050271552,-40.8975682573,-16.7670645769,-3.12191500043
2019-01-18 18:27:14.400,0.0202433484143,1.00692001917,-0.100727789982,3.02019170733,-2.79310554304,-4.54306471019,high,A,2,1,0,0,0,0,0,1.01214811457,6.12881990962,-0.0422200825596,0.921536426212,-0.17947129187,-9.25900592412,-1.12570265241,4.08084096994,0.944736147552,19.7417207671,0.0671064246637,0.110334092472,0.0997707274545,15.0095370348,4.49666644545,15.7355858352,0.124360981961,12.2397638174,0.0,0.0479276296159,0.0214572946016,49.9293635231,-0.261684850805,-0.189276657124,-1.26783355434,1.20777921881,0.152626495434,0.545386081908,0.831471247311,0.718126797014,0.762186357084,0.5082483804,0.04311479225,-0.236840430095,-0.462445577094,-0.225757762396,-0.0907359994779,0.111558793865,0.0740358136041,0.0462642487808,0.0431022470986,0.0452422464377,0.0387149946289,0.0407584995225,0.040321988404,0.0378907732604,0.0390855899011,0.0,0.371056532452,0.291481754388,896.760171437,11.4371151829,6.35258333623,7.38427049477,-36.3763820353,12.8403328415,-102.681841322,53.7874380865,-63.1774406275,-69.5479279843,-7.52114994138,-9.72972200728,54.4584319006,29.6918710428,14.6373483705,43.3243550454,36.2891602497,-30.0687936662,39.2030956754,14.8847184769,-9.75337865443,16.4131612208,32.932535507,43.2327963069,16.278788934,4.28701836716
2019-01-18 18:27:14.600,0.00551137471156,0.995663398078,-0.0987034921784,-0.828879225583,-0.931914442749,-0.328222493702,high,A,2,1,0,0,0,0,0,1.00055902219,1.28966480319,-0.0227946239151,0.911227403485,-0.143580402001,-9.23075531538,-2.0461102855,6.9910845507,0.926706299958,16.8900770281,0.0596560003988,0.0971950104414,0.078044061598,15.0283423201,3.56031928275,12.0693511076,0.101584809031,14.4148863697,0.0,0.0293448096775,0.0295967363682,49.8508628788,-0.347510100318,-0.384537007051,-1.66434345917,1.40250173898,0.588254293437,1.02492808758,-0.099972763577,0.446476332613,1.03572637575,-0.499403412415,0.601527660398,-0.120692431339,-0.389850171866,-0.0393763018455,-0.262721878012,-0.113453682169,-0.00266635198048,0.0161826493907,0.0252980007388,0.0246470607675,0.0339039505526,0.0341658062366,0.0362372202875,0.0401200373412,0.0393353506005,0.0,-0.214262755196,0.484852941161,876.208327593,-7.07379127873,-10.2529400642,-43.2592351818,-45.50868671,-8.27027560006,-125.26878471,191.863010668,-10.2492532966,-45.4335014931,52.3090071626,-46.9430044569,-40.5165792771,-8.69433762734,0.235981998276,4.5817500096,-77.2900275621,3.4618876446,-55.8212115809,16.7494872562,64.3280619666,-0.187944679569,-6.15498412731,-20.9541737924,5.92598854815,16.0372417064
2019-01-18 18:27:14.800,-0.00495993335698,0.896122552644,-0.106010044882,10.6975923235,-0.169129500015,-4.36859930963,high,A,2,1,0,0,0,0,0,0.902384818086,11.55645907,-0.00327898116746,0.897134317088,-0.113691860517,-3.28869534085,-2.74443494321,4.88085112647,0.905667666818,14.3824506871,0.0345679742344,0.0910461469286,0.0358044957388,14.610279831,2.3310450722,12.876145551,0.0884843990751,13.677261579,0.0,0.0687065398821,0.0334290470796,49.7199061893,-0.479530911201,-0.605069717287,-1.87968738932,1.2265892542,0.779250379196,0.951198393527,-0.968261640752,-0.218726266191,0.18126781128,-0.805230062362,0.264743217752,0.280985730227,0.568989958073,0.336426062242,0.348869152409,0.106432203209,0.0726095274586,0.0916509824508,0.0913402000937,0.0968801182717,0.0934758317094,0.0946348524478,0.0939088472242,0.0904629391614,0.0916018734162,0.0,0.176119518064,0.486691742979,878.285655317,-2.86403979185,-3.67269314879,-65.5714471806,-21.4290389384,-4.09332734069,-60.3806490216,217.775124936,73.5540705042,50.5228079676,63.5337027982,10.6406516199,-41.1917130367,-8.66851335435,5.52345539836,-25.8487097319,43.706092374,46.1200860042,47.3764696182,-19.0987462909,-71.5466701278,2.69209057053,-3.08469310145,15.2756992827,-9.41907702515,-17.8222109006
2019-01-18 18:27:15.000,-0.0243528204783,0.863145250264,-0.1520040212,23.3102900442,-0.736684200392,-10.7270002278,high,A,2,1,0,0,0,0,0,0.876765650205,25.6706224982,0.00413234754188,0.901358898395,-0.108059447995,5.52460090505,-2.6179095545,-1.30428858659,0.908310619263,12.0513428536,0.0189395622641,0.088288562989,0.0223065904113,11.1182933043,2.43083807168,8.72543957476,0.0871061722641,8.84691354038,0.0,0.0151126953372,0.0301997147595,49.5862889202,-0.605930351028,-0.787677437397,-1.83480682509,0.772016687781,0.705687900539,0.413172438337,-1.1159418731,-0.630958598524,-0.802731995728,0.0507076094543,-0.385881459545,0.291172659381,0.489877454873,0.0876188645423,0.239299518145,0.213520957072,0.127822148599,0.0848323215467,0.0715041777399,0.0594534111256,0.0517069229954,0.0462325780714,0.0430696074769,0.0443335619286,0.0421289104336,0.0,0.35362307776,0.317527269764,878.027981747,-0.943920641133,0.802188175835,-81.3454730663,5.4458561952,-0.699286769907,33.7573578108,89.2689776935,89.2869800482,88.2812254809,-12.2405118271,49.3633266482,30.8140928646,7.15883972854,-3.9682886755,7.55910837536,41.241102587,-51.5304645879,-3.20223620754,7.94313157569,45.2766005195,-6.24802762783,9.91641700686,-9.99131682916,10.7673685948,17.7194314683
2019-01-18 18:27:15.200,-0.0560404803775,0.896424611399,-0.21739815697,20.8422217954,-3.29930043818,-9.52211972149,high,A,2,1,0,0,0,0,0,0.924110154698,23.1506880403,-0.00510892098549,0.922083591841,-0.127243040235,10.5908068448,-2.21170815258,-5.40431774151,0.932524960256,12.7848305397,0.0312396234812,0.0627816377218,0.0493995982077,9.70894745116,1.96435756176,3.97382950802,0.0598369272037,9.6585507855,0.0,-0.0950650044843,0.020491205367,49.6294824612,-0.546661079343,-0.747198380671,-1.36823138557,0.305394283462,0.541581895686,-0.174984479929,-0.32212299115,-0.320836724053,-0.744014404067,0.986908746843,-0.286991042056,-0.0896510167735,-0.466874446429,-0.236314327151,-0.358047200219,-0.156106071655,-0.088411177465,-0.0863094277281,-0.0873443919402,-0.0895520933071,-0.084506675255,-0.0842587985231,-0.0835381933035,-0.086461156522,-0.0851942328471,0.0,-0.0925891463622,0.352633267739,869.670965104,-7.04549376132,-2.61832314535,-93.6683544333,23.9198103712,-3.61148167427,104.356389659,-106.794618273,20.7254804342,24.7104793286,-74.1899095262,8.95007694787,46.3646299852,8.74262796408,-2.76648048162,24.2560930639,-72.3413701486,9.84656047513,-38.2230114573,14.1150557788,7.76689313459,15.2952220601,-7.08301487583,11.9880173366,-3.27659421754,-8.95059646365
2019-01-18 18:27:15.400,-0.0826062548708,0.928109591311,-0.262811863417,10.4499311116,-6.41538049931,0.655515545846,high,A,2,1,0,0,0,0,0,0.96813288467,12.2795711578,-0.0237007943263,0.931064237144,-0.156275894772,11.2485579594,-2.39091910395,-4.80558181949,0.947350107404,13.3459709132,0.0391197957176,0.0582575230479,0.0693266494307,9.50826624357,2.3231330941,4.63549621205,0.0547832682858,9.4848390744,0.0,-0.0530153984086,0.0120877086947,49.8111441121,-0.34201377572,-0.528602591498,-0.590667812158,-0.117051923479,0.283465179147,-0.580746581458,0.771782500729,0.333670653626,0.177240506047,0.62248268845,0.258757598684,-0.33414848234,-0.509910425202,-0.0861804953617,-0.136238594903,-0.205827760371,-0.173435337577,-0.133475364286,-0.11955176817,-0.10463942287,-0.105654265725,-0.10136703553,-0.100162059412,-0.0961176369534,-0.0965742551165,0.0,-0.230474203199,0.534778881687,868.801376629,-5.54624517275,1.63302070034,-85.7946559611,44.292331641,2.45118760111,128.197630249,-220.44279725,-58.5142347408,-58.2830009226,-29.0062284416,-37.3629086364,-13.9813350323,0.686496461874,13.3074029719,-12.2401074613,23.8501556358,50.4757149928,58.1523182063,-18.6327038302,-48.3441755194,-10.6641364878,12.0999366349,-3.67076959119,4.88603807529,9.37276457483
2019-01-18 18:27:15.600,-0.0841061402498,0.976118695755,-0.292806451692,4.12245297584,-6.74532207276,12.6405216817,high,A,2,1,0,0,0,0,0,1.02255423777,14.9089495535,-0.0410923757703,0.925930683242,-0.188289005057,11.4322681708,-3.0496218589,-1.94165075418,0.949084461271,14.8093258538,0.0388708311954,0.0511612730068,0.0817763868767,9.32639800996,2.93872326806,8.51497658153,0.0573495667139,8.80134136213,0.0,0.023288460929,0.0162830947373,49.9360275422,-0.189906665418,-0.338626049569,0.20145740189,-0.583280453465,-0.158587268562,-0.772741007191,1.22598442277,0.576772268781,0.776023871446,-0.713294572182,0.242759710166,-0.142150509489,0.312772445769,0.0619353378186,0.216776498885,0.0862241305061,0.0177431490526,-0.00973754845924,-0.0148047657416,-0.0263587287398,-0.023674873573,-0.026678248731,-0.0262328568283,-0.0289954437604,-0.0283318143948,0.0,-0.579876337194,0.506830629042,876.599644339,4.64582812919,14.218044695,-58.1926572449,61.8643156286,14.847295679,91.7545720332,-174.110333648,-80.1908294074,-72.3228418287,58.3705712275,-22.3985055024,-47.3555778351,-8.15546899741,-1.64260936064,-18.8212730346,51.5783965487,-63.3518208479,-35.6961085672,7.26760910618,62.3552325299,-2.92219126182,-21.1165964921,-11.5536646583,-13.1249926745,-16.6732670642
2019-01-18 18:27:15.800,-0.0589625142351,1.03081413916,-0.334635453035,0.285594611158,-3.7382216746,14.1213674212,high,A,2,1,0,0,0,0,0,1.08537332472,14.6105743698,-0.0518380239281,0.931789140089,-0.227610998533,11.6180138103,-3.51733973088,0.466614231638,0.963220178358,17.0294774483,0.0316522547472,0.0616755024066,0.0866617458233,9.04006732845,2.75163214077,10.7994730577,0.0789569210432,5.9161115182,0.0,-0.0343380762224,0.0186664256735,50.017359212,-0.0790889766614,-0.1742026452,0.917330770756,-0.963931698227,-0.600842829453,-0.62615700953,0.75154574429,0.223548279085,0.425935917555,-1.19446889682,-0.262372827407,0.190537403324,0.363258689966,-0.0701792621184,-0.129549712887,-0.0179755016969,-0.00985707647988,-0.0286849791174,-0.041337198161,-0.04253678419,-0.0481211773009,-0.0489308670886,-0.0522289526535,-0.0517091542241,-0.0529304287998,0.0,-0.191288430988,0.192828358384,885.030887363,15.3365462014,26.3225376046,-22.6677854419,64.343861486,20.8687329924,5.84975967556,-8.42868810748,-33.2161202788,-10.2312675883,62.8096038079,21.7848000592,-1.77783867205,-8.2421085037,-21.8950278655,12.4358922867,-75.1438634542,0.862216633361,-28.008122177,-5.1532971648,-63.1822106176,0.666475652884,10.809693314,9.85796091161,4.83103859078,7.6970027033
2019-01-18 18:27:16.000,-0.0243096642948,1.01369747648,-0.354450640452,-4.42593684553,-1.10278906902,4.17865694332,high,A,2,1,0,0,0,0,0,1.07415491905,6.18597078407,-0.0550629790844,0.951384960728,-0.269017764461,9.09742561544,-3.67294965904,1.89115694046,0.991848528518,16.1343960673,0.0264846345901,0.0665615970012,0.0755852792431,11.1987059463,2.54289809629,10.5959155447,0.0834973747353,7.18084340471,0.0,-0.113598865343,0.0183228806517,50.1744266631,0.107472910495,0.0717355295267,1.57444290248,-1.05814403772,-0.77535855698,-0.117987642826,-0.227186305109,-0.324384901873,-0.407632602668,-0.109809917712,-0.402749911648,0.110472343037,-0.421314162111,-0.145830017491,-0.270185793342,-0.214765280573,-0.167751467849,-0.131675283627,-0.118314434758,-0.111061976496,-0.109371335475,-0.108439758709,-0.105232658703,-0.105071890009,-0.104109326753,0.0,0.392812981323,0.33359539576,874.391554785,6.80484298311,18.0877527808,-2.43362880063,33.7065128006,2.10366176402,-99.4023275777,147.789228688,29.1879489726,50.0283034104,-28.5877009389,21.0121361443,37.6145845332,0.559497271302,1.56038028355,6.49513464158,2.71745484573,59.3780274797,67.4338249103,-1.11768138006,35.9504876791,2.40339306716,2.71035568108,-5.52704147804,5.65436541682,3.496369263
2019-01-18 18:27:16.200,-0.000609629203747,0.954968429578,-0.304991312403,-5.49292627409,-1.53524341259,-2.73873954277,high,A,2,1,0,0,0,0,0,1.00248928861,6.32691912953,-0.0511057805386,0.966688823947,-0.294515646328,4.2968895624,-3.80604286108,3.2225337213,1.01280246825,12.9104455058,0.032970521065,0.0509383477282,0.049531202999,9.99656990143,2.37375247195,9.08790182028,0.0617961314171,6.33571473509,0.0,-0.0632446266128,0.0318880991026,50.3371136084,0.296792027954,0.314046288667,2.01355140342,-0.914282171301,-0.689130559561,0.414928821387,-1.09838922689,-0.649110875142,-0.873882529293,1.01847952645,-0.0322135645994,-0.31220779315,-0.499387306477,-0.0671047933092,0.0758405700641,-0.0350800775549,-0.060802379407,-0.067719086755,-0.0642567694471,-0.0682244487934,-0.0612867352785,-0.0589045142344,-0.0593084809365,-0.0587095049341,-0.0586916727594,0.0,0.521977423787,0.593937034533,847.980369607,-17.4016839955,-6.21379703589,4.14083874947,-17.5814075069,-28.3521237354,-161.646941403,194.193173794,61.5116405602,53.6971893199,-79.95067461,-7.80531161729,16.9215265356,19.6603155732,36.1069172172,1.87624826437,93.9594518909,-36.3953189463,-26.7121673783,35.7344641968,38.3813313266,28.3412871988,18.8987557643,36.4835992282,20.6536003465,22.3239461165
2019-01-18 18:27:16.400,-0.00547968081473,0.964323483815,-0.250418946921,-0.00615848434757,-3.46110852332,-4.06336502251,high,A,2,1,0,0,0,0,0,0.996322968377,5.33762544989,-0.0426789806115,0.978005302683,-0.30001911132,0.822159515772,-3.83301087527,4.13232617113,1.0248379372,9.94160174076,0.0375941491935,0.0381411469922,0.0402054307894,5.86485736197,2.36775556855,7.72840983376,0.0461084409769,4.47900084054,0.0,-0.00386872340938,0.0284139037431,50.4089854806,0.390252255559,0.444400903682,2.08505020946,-0.652210395595,-0.453599257978,0.621686850026,-1.31800374837,-0.515694760662,-0.502064215977,0.648003051668,0.241655643182,-0.32414159036,0.287171240997,-0.00729484262596,0.0463206622541,0.0514111321367,0.0299309658597,0.00729559320552,-0.00494232359854,-0.0013142627637,-0.0102082420922,-0.0125148754347,-0.012908927334,-0.0128434441964,-0.0131524655329,0.0,-0.106322347338,0.367786841619,824.893875659,-37.8447440963,-26.1180213512,15.0397337777,-58.6136791273,-40.8174333673,-130.164674417,116.292726329,52.424816949,13.9621396686,-5.81800180691,-2.87954455681,-10.2109092918,25.3517567007,17.3150808372,25.20705008,-40.5556144819,14.9717236185,5.08543570305,-6.15178844792,-51.3573628542,-4.5561711807,10.3363809118,-15.5951916808,2.84635517373,1.39431251459
2019-01-18 18:27:16.600,-0.0519778803861,1.02341824478,-0.280936486823,6.37519334829,-4.10655087182,-13.2140073696,high,A,2,1,0,0,0,0,0,1.0625497228,15.2353812245,-0.0375742515307,0.993890078261,-0.303039881888,0.14303655522,-3.44820593735,1.82073901856,1.04057407689,10.4342367519,0.0328710602848,0.0326574101697,0.0374363466622,4.63373953198,2.02726783505,10.5393363832,0.0383429286411,4.9276588224,0.0,-0.00110398817744,0.0181600042646,50.4434262663,0.440104526672,0.509439677105,1.83519463509,-0.276457572232,-0.0950834773076,0.457515605938,-0.666109556724,0.0265594415438,0.369783680031,-0.648170989627,0.071105989506,0.183697690185,0.408767917891,-0.0078120720505,-0.182490112541,-0.0902949924634,-0.0582208515177,-0.0337011501453,-0.0247094643638,-0.0284317373572,-0.0225088384057,-0.0215169563009,-0.020780544431,-0.0217672128571,-0.0213006230539,0.0,0.24872733177,0.263132945333,829.070774003,-30.4823829208,-17.3073199622,50.8887650811,-58.9309322949,-11.7823369534,-4.56550972741,-17.0647614835,21.7972909226,-16.301969213,100.558099122,30.5533226163,4.66607527275,1.73613288193,-18.9731024261,6.27070980224,-40.8850426959,42.4216401039,41.1521983201,-6.99071344102,61.4740697769,-1.05859417492,-18.3873150953,12.3451791707,-7.26866624687,-6.18976423396
2019-01-18 18:27:16.800,-0.128208825943,1.0443911443,-0.335411882678,3.83152752239,-1.82640429904,-23.4543205352,high,A,2,1,0,0,0,0,0,1.10439643986,23.8352996118,-0.0449246991462,1.00526881969,-0.310140787052,0.0945489796451,-2.6283863084,-4.19506801759,1.0542144439,11.9219617616,0.0471757733407,0.0368516303342,0.0391103220998,4.58503684931,1.28652359284,13.1149486448,0.0446836046532,7.31702923655,0.0,0.00865733791062,0.0180562158405,50.4770569749,0.482220281094,0.541879344723,1.33440477225,0.160273689635,0.291394071644,0.0449419829652,0.438677582074,0.529171410849,0.812267466106,-1.10211198852,-0.238477860561,0.326702823985,-0.347823750286,-0.0299079998222,0.00991665145697,-0.0285692680101,-0.0229662543834,-0.0213844480745,-0.0185077461772,-0.0150263262219,-0.0145511481723,-0.0133834260513,-0.0139746660029,-0.0118622540632,-0.0123347968906,0.0,-0.376532138631,0.504712265253,832.035075215,-23.8930049176,-8.75327850161,78.4522168908,-46.7893736473,19.8265744355,121.4305163,-140.746288278,-30.884219113,-31.350561171,69.4682369368,12.4095413289,7.16858437791,-29.7268695024,-16.1260470917,-33.6272903465,67.0960975444,-63.052412673,-60.6482047723,9.64428526926,-50.915472182,-0.340957035068,16.2022304497,-14.9349932597,4.35272491359,3.82615880593
2019-01-18 18:27:17.000,-0.182237493207,1.02159305427,-0.299915160974,-11.4978374482,3.09229441477,-9.82749294609,high,A,2,1,0,0,0,0,0,1.0801907129,15.4383343771,-0.0654705289749,1.0037319722,-0.304354071708,-1.86935636358,-1.48996696017,-8.18654474548,1.05335067527,12.0599217628,0.0738278055636,0.0357490116732,0.037287383373,6.57751007637,2.52959192347,9.59844231486,0.0440057649501,7.38534528759,0.0,0.03851249274,0.013529688386,50.4466791925,0.453247824623,0.478495190339,0.591439003559,0.498469816801,0.512328399536,-0.44717071436,1.18353783247,0.507621730918,0.307162598104,-0.128140338717,-0.213272118793,-0.15984263979,-0.420040635447,-0.0119836631162,0.151745037675,0.0907769084188,0.062745288457,0.044151163534,0.0379935020117,0.0418812066182,0.0394491119552,0.0398001635852,0.0427321928813,0.041317600446,0.0426128838292,0.0,-0.130016558351,0.508853229587,836.724165186,-15.2521854685,1.91267849437,96.8284070575,-22.3462409653,45.010034171,184.542956555,-165.992953661,-56.2902247901,-12.5205199233,-55.7877548626,-27.2048494779,-5.87485480507,-3.01395351982,20.236736044,7.88684825252,-16.2132214966,15.3219263722,26.1551100989,-12.6652511957,11.2429607429,-5.31267665309,-18.27518889,8.68645354744,-8.86210726852,-9.09253696692
2019-01-18 18:27:17.200,-0.159456467179,0.955884105116,-0.206827052296,-27.5414240312,6.18269858535,21.1081360371,high,A,2,1,0,0,0,0,0,0.99091786587,35.2464070002,-0.0879949961223,0.99409641031,-0.279750140349,-5.72193756119,-0.275719017775,-5.36496489651,1.03947783307,16.9033277988,0.07918049564,0.0400574636475,0.0454345187707,12.4882573427,4.04642256708,14.9543485759,0.0489751801846,11.2700925504,0.0,0.0647601207845,0.0161302291061,50.2999344332,0.302149866761,0.274272158756,-0.337861510265,0.619136144575,0.455532806968,-0.783936177077,1.03628812008,-0.0190653660768,-0.573471148536,0.998542332738,0.146210160318,-0.339361776047,0.4085908981,0.086471591559,-0.0224342608979,0.0453789715481,0.063971128005,0.0869816644002,0.0981424039938,0.0944724310062,0.102613217589,0.104759593265,0.102749090176,0.105258007839,0.104114889656,0.0,-0.112049884898,0.467736322448,856.226192814,8.28496379324,26.6870146585,115.623393516,19.907186257,64.8759321598,161.050347059,-67.25053234,-25.2181308821,24.1925210018,-104.758390587,-24.566537054,-11.1423806828,24.6228431994,2.23721596758,19.2845402328,-66.747432985,33.2903825162,12.6825669456,-10.2759761038,13.5143866927,-11.8952335523,-5.40348636541,-24.8937707714,-10.789357329,-9.82970464256
2019-01-18 18:27:17.400,-0.0682030028779,0.844173917593,-0.148146886397,-25.6788693272,2.84838705909,32.6669948407,high,A,2,1,0,0,0,0,0,0.859784131451,41.6491319319,-0.0992605584013,0.975630658312,-0.253609402682,-9.08626140338,0.454886060838,0.535990834067,1.01569364021,22.7903632659,0.0683253945957,0.0733796333251,0.0676812354629,14.9003187022,4.16745995421,21.6737995621,0.0889048799238,13.6207651237,0.0,0.0778018710496,0.0184111470973,50.0495431743,0.0447229633947,-0.0426025083711,-1.30827009112,0.518610176614,0.173656728382,-0.749797550278,0.14875382196,-0.52024641343,-0.783263000534,0.855407034897,0.369008284844,0.220859499721,0.549331046961,0.170608310933,0.0758013960685,0.118190662303,0.145223972308,0.148651713655,0.146416594492,0.152735246903,0.145695554441,0.144075454087,0.146793066534,0.144623450325,0.146213388632,0.0,-0.404702880501,0.407798135257,875.067659761,30.8931520515,48.6196608886,116.869917051,54.5207231684,56.7693563774,47.9143131005,71.2406751533,19.336339177,22.9839258593,-27.0861285912,1.22244493443,-13.9448799503,-18.5848219827,-43.3152279869,-43.1000179475,41.4014691324,-77.5350699903,-72.297566549,-5.64604957864,-66.4816015631,-9.98162623663,-8.52589771046,1.30133305491,-7.94927949292,-9.59309969113
2019-01-18 18:27:17.600,0.0196468323397,0.796154825985,-0.113037265455,-7.56052097468,-3.05644910907,16.6913979827,high,A,2,1,0,0,0,0,0,0.804379219238,18.5770321952,-0.0950728062089,0.947602548674,-0.230712455771,-10.3453218184,0.522329296547,3.9951180016,0.983703015355,24.9969310568,0.075605143601,0.104204726908,0.0888914774973,14.2861170596,4.09403912785,22.4357646563,0.124626280923,11.0595358467,0.0,0.0341167557309,0.020209003045,49.8270215939,-0.183825615803,-0.322313210861,-2.05909348203,0.349014667896,-0.103286803854,-0.238332147703,-0.737109555949,-0.428188293897,0.026415280107,-0.253509921918,0.21446253106,0.609978021243,-0.185180437575,0.145712838548,0.29223336749,0.199609954897,0.152456948832,0.118343463424,0.10330255742,0.0912949408263,0.0892239881121,0.0860097005847,0.0799217717911,0.0795440562329,0.0765037596035,0.0,0.372188090005,0.43300409323,872.21073617,31.3562951015,46.0032789705,80.8270418311,54.8012061789,6.62073546225,-111.184896728,139.251272569,26.1600323459,-23.8177937295,66.9630016992,5.63692246215,-10.5360323092,-42.2316896549,-7.35206567249,-13.7544133602,16.7441388921,26.8316823226,57.3356826736,1.28412419422,73.4589687154,12.4558713357,4.64839924734,6.2945964574,10.3840252268,12.9895521112
2019-01-18 18:27:17.800,0.0539962657393,0.88956209071,-0.068592788868,5.24933507729,-4.00461292541,1.26580171596,high,A,2,1,0,0,0,0,0,0.893835152938,6.72270015843,-0.0774104485213,0.925293189662,-0.195321839445,-10.5329648636,0.539318954282,6.40841951586,0.955583920377,23.5781508791,0.0970292234329,0.0989217423394,0.10559718994,14.0276308761,4.07113557325,20.9435847204,0.122289719837,12.9471904471,0.0,-0.0493268615586,0.0282873348144,49.8143195242,-0.199671800057,-0.372351068106,-2.32114763513,0.307693082356,-0.130107278774,0.610673023133,-0.893650373218,0.262719384726,1.02367138835,-0.805617526827,-0.0574428363558,0.113053424213,-0.315013020743,0.0091593940676,-0.00975064360284,-0.0463282757721,-0.068808305922,-0.0611111662371,-0.0588775060872,-0.062569960697,-0.064093984003,-0.0662881365885,-0.0644887766663,-0.0659954122012,-0.0637311444938,0.0,0.452739049765,0.550318187931,843.354012625,5.56302798448,15.4797786116,9.8168569886,19.4741369034,-66.6575537602,-230.716025816,94.0403885367,-3.51908778726,-54.2225592042,64.8633316199,-2.12708077793,12.1949561679,24.931444777,52.8540231977,61.3821065614,-40.349859955,67.9886730314,23.4396146816,26.8032731138,-22.6406731892,16.1926401666,29.1523339291,17.0576037168,18.7571511449,15.3221847069
2019-01-18 18:27:18.000,0.0576895363414,0.993933602205,-0.0519629690058,3.96241557233,-1.3041835589,0.121643074763,high,A,2,1,0,0,0,0,0,0.99696150294,4.17329952924,-0.0464273881406,0.916883599313,-0.148080353833,-10.5111501886,0.626355744305,10.3377467842,0.937678097557,20.3011508654,0.106756902894,0.0883520364376,0.0930481922012,14.0545131341,4.01564756588,15.8004515295,0.102388578784,15.1670594267,0.0,-0.0473245957655,0.0286289146013,49.9678659445,-0.0474064770431,-0.238285721528,-2.11383809572,0.341126385705,0.0289266692073,1.26709201034,-0.31313883705,0.815937999499,0.967307521436,-0.2182578219,-0.193489648503,-0.562245967346,0.212555725038,-0.159373457657,-0.316214489787,-0.210641895934,-0.147719783429,-0.124518374069,-0.115516101958,-0.100723822681,-0.0980821091548,-0.0923582813573,-0.0906324073931,-0.0880305575138,-0.0898363482593,0.0,-0.13502671471,0.465412890759,824.909363462,-9.76269354507,-5.00963593476,-50.8615483687,-7.88053929639,-101.629856743,-214.59154078,-0.0261798307453,-11.3791285987,-3.88511908825,-1.12116668058,18.3637745202,39.9413155333,70.1208866469,22.8233123053,14.0627331087,50.7576591338,-56.7413072277,-45.6146220283,3.0952091995,5.04544004812,4.5482887055,-12.003118421,7.62899394132,-0.272257725715,3.69059004185
2019-01-18 18:27:18.200,0.0668970550552,0.990677554115,-0.0756705142563,0.378738062494,-1.15636322296,1.22212912324,high,A,2,1,0,0,0,0,0,0.995812863409,1.7245921307,-0.00490496343022,0.911731015954,-0.110706246046,-8.53172093683,-0.0817538619833,12.1793504624,0.923615122641,18.0155271576,0.0905964191813,0.0816732451047,0.0584777957356,14.7088678733,3.86563953233,13.4490141646,0.0828254878804,16.9723042283,0.0,0.0171379538203,0.0181227525022,50.0500878634,0.0336297781978,-0.16363431245,-1.69791977257,0.212272021729,0.0908898509907,1.16932787698,0.386131322254,0.530541845047,-0.278236217439,0.534319886635,-0.161301269468,-0.362768388982,0.145843239645,-0.126424853739,0.00677553269518,0.0249433837375,0.021870709612,0.00809313991036,0.0089229767087,0.00190998788192,0.00742325916008,0.00585454075664,0.00532449171595,0.00469039740643,0.00745066973908,0.0,-0.0969784090444,0.373518403685,821.467125371,-9.91192110898,-10.090060562,-89.4359620484,-17.9478439089,-83.6072917311,-70.5532940591,-77.8693886227,7.49150107934,67.6693776321,-48.3079770615,27.6925591383,13.3027226521,-10.6995453107,-40.8831747257,-49.6923434118,20.5670079151,8.91840240505,52.0573487012,-10.2717255526,35.9054945191,-2.55540718451,14.2283014751,-9.87267879668,3.60636950554,-0.809006658375
2019-01-18 18:27:18.400,0.0730697552494,0.960354283263,-0.0881512367075,1.19436327419,-2.89180598343,-1.06222821825,high,A,2,1,0,0,0,0,0,0.967155716029,3.30414501258,0.0338494069745,0.912476045645,-0.0909269434483,-3.7424230526,-1.59417129011,8.48428975319,0.919654764334,12.6918168264,0.0533311127424,0.0821754114751,0.0347000206198,11.6392235787,2.43493057676,13.5504631821,0.0794636075346,15.4257301183,0.0,0.0172744480694,0.0160296050216,50.0195583235,0.00163617977757,-0.190927761368,-1.16337784273,-0.076216722294,0.0123013271322,0.356411924987,0.713502049842,-0.32891790312,-1.31117873543,0.481056821437,0.0357210951936,0.410263049654,-0.302819987167,0.12061955049,0.238638951016,0.120874803214,0.058891924909,0.0509402005409,0.0421236582206,0.0393108064148,0.0291941640075,0.0272340953707,0.0273555058158,0.0265972862008,0.0232129882979,0.0,-0.380217505475,0.464213172046,819.686367365,-8.23591672941,-12.8457192672,-114.149822769,-21.8706308207,-32.8613810751,112.438755928,-99.0166743525,22.113823924,66.8592792778,-28.1392147577,-3.45379036337,-34.2085442713,-65.9648237604,-6.56564514146,17.064743106,-62.6547650112,52.1555219162,-12.6131162385,15.8876686701,-56.1623945844,4.7532823103,-8.78872221687,16.3263838098,-1.62499538987,3.1439730194
2019-01-18 18:27:18.600,0.0607505253519,0.975791530838,-0.0736342250479,1.64291151759,-2.73890633515,-1.31725257787,high,A,2,1,0,0,0,0,0,0.980449762652,3.45484015857,0.0553416616795,0.934412314519,-0.0785081665567,0.811207088202,-2.52538685582,2.82024851676,0.939765702867,6.32610153079,0.0187537285422,0.0777437609992,0.0205913441853,4.4886188543,1.09686404141,6.88264615096,0.076494659498,6.21976528333,0.0,-0.0479080687775,0.0109637148958,50.0410972394,0.0215229804024,-0.155270088896,-0.421101307827,-0.297062157701,-0.0226997039241,-0.596097704559,0.586846812285,-0.851480419707,-0.850518828956,-0.17686869774,0.211722544182,0.470993886463,-0.0973262733815,0.11664643883,-0.112753694623,-0.0970399903756,-0.0610025525054,-0.0519403551564,-0.0520348240916,-0.0494135701842,-0.0448492315832,-0.0443748175868,-0.0474567102254,-0.0476218660876,-0.0447571152115,0.0,0.178245119364,0.543301487195,817.202758155,-7.11909095967,-15.4532564073,-123.982256009,-20.9960729846,29.7182200297,236.685129255,-50.8098556924,17.3472016999,-7.39216908467,30.5588894696,-27.9208873507,-18.0638557129,16.6195674281,45.0591280053,42.8127960936,31.025710467,-58.0513617106,-33.5776803264,-8.33848272915,55.3202564558,-1.63487184348,5.77722708188,-17.0960213637,3.81036305428,-1.20735658853
2019-01-18 18:27:18.800,0.0465429543637,0.983168458613,-0.0680384797981,1.06957187854,-1.85352245296,0.152549235352,high,A,2,1,0,0,0,0,0,0.986618314925,2.14541388925,0.0598243486835,0.965581253291,-0.0710083689473,2.24955589707,-2.3248990798,0.0637737255325,0.970138885482,3.5874984798,0.00939405326104,0.0391240945143,0.0118312396797,1.91344369794,1.09029869262,1.09297781295,0.0389554890429,1.77879554107,0.0,-0.0676501456218,0.0118555146912,50.1529464809,0.13054607997,-0.023301015735,0.460804687805,-0.370212414687,0.0203959060461,-1.17633629242,0.101356748639,-0.571495327523,0.581277587794,-0.58298842624,0.0572571553228,-0.334566153089,0.283831003899,-0.195100387223,-0.229073838368,-0.110361338618,-0.0753529090709,-0.077281229356,-0.0690782131378,-0.0709949883723,-0.0695660512452,-0.0697582014415,-0.0650332769373,-0.0644589711067,-0.0670445531347,0.0,0.54218209143,0.649438718664,798.497479913,-21.9742395847,-32.7840344812,-132.028741861,-29.1209308616,68.5896387967,226.046328048,23.2146433391,-10.7983820288,-79.3032766229,44.7188221321,-10.010681307,31.6328034801,68.0008620048,-1.90490048837,-32.8947471068,48.2426601381,17.7320881255,66.8393203482,11.2267214641,-12.978951651,16.4138671019,17.768606767,36.5653042623,15.0044211693,20.4195699291
2019-01-18 18:27:19.000,0.0463902510801,0.965371597597,-0.0795464988688,2.01686671551,-2.01956592522,0.446049144984,high,A,2,1,0,0,0,0,0,0.969753588457,2.88883327906,0.0585566795736,0.978216171105,-0.0728339872807,1.71081117011,-1.9940579131,-0.0728517029635,0.982791958068,2.94852066657,0.0107527457064,0.0135407373859,0.0122225897701,1.2345304991,0.715375518497,0.955224231085,0.0126880889905,0.897714376272,0.0,-0.0278007127113,0.0200735152715,50.2407416842,0.212870752882,0.0833698591623,1.25049380433,-0.38976174278,0.0158027873009,-1.18951611836,-0.50968577687,0.156778170988,1.29599870944,-0.293319389617,-0.28029108764,-0.636482148776,-0.0347078113467,-0.182109189356,0.102256218359,0.0370040003667,-0.0193913815918,-0.0196726256716,-0.0247562605473,-0.0202135760945,-0.0233524985381,-0.0204875102818,-0.0241103859026,-0.0238048292798,-0.0208860276385,0.0,0.298886931751,0.522963608026,772.058253934,-44.0298330156,-55.0698580769,-128.192580277,-34.9037196638,79.3727464148,96.5818294899,82.5210332481,-25.1753217951,-56.3845540479,9.08421544954,36.6867086279,40.1670437133,-1.28827272818,-21.7139014599,1.13206948705,-39.6234102612,72.2441648167,-12.3432271253,29.8183998541,4.20660736997,14.908530921,4.66284542291,-8.69287988006,11.38607833,5.54003285417
2019-01-18 18:27:19.200,0.0516656634407,0.96770658233,-0.0860014062517,2.06146582203,-1.85923562728,0.633061562407,high,A,2,1,0,0,0,0,0,0.972893422807,2.84730844745,0.0575527007568,0.973845001126,-0.078507060155,1.39398621173,-2.08656659117,0.0123847116438,0.97878061138,2.72752215294,0.0111246934907,0.0115371478165,0.00763724409637,0.643629667022,0.640267749209,0.997913874006,0.0110054313508,0.670309495607,0.0,0.0112953128736,0.0191890767224,50.2504038605,0.213762260877,0.106579829431,1.79251131122,-0.395839989906,-0.0745084984101,-0.662444513664,-0.846087350729,0.662234712387,0.490586679204,0.303432279812,-0.262912372565,0.130208135588,-0.369786096292,0.161691146579,0.082666970086,-0.0100473176976,0.00211799921547,0.00737407518876,0.0090241876005,0.00716818015169,0.0132652889098,0.0104096296987,0.0139821787513,0.0139651220466,0.0112983269044,0.0,0.314202371161,0.519246702194,757.379135926,-53.5466108569,-61.8256624707,-94.291944304,-18.8735304264,75.436117485,-67.7054347062,101.053468598,1.31744550011,48.933939851,-17.1199062675,49.0065596901,0.864298817329,-41.0302468594,37.2572432281,62.7314933697,14.8075698157,-56.1974679592,-16.6770370452,-16.0840638482,44.2998211483,-2.84518036996,13.5340218744,20.4298904809,3.47956552051,9.61188213098
2019-01-18 18:27:19.400,0.0532727239084,0.980202361106,-0.0859069752897,0.324797627414,-1.17818954705,0.450786840631,high,A,2,1,0,0,0,0,0,0.985400761231,1.302625381,0.055281978899,0.972099135625,-0.0802131369939,1.38499613921,-2.09020431185,-0.116172335458,0.977045261017,2.65719436132,0.0101868366468,0.00899246135816,0.00801106795903,0.660794406337,0.633956639428,0.849554459564,0.00826144933599,0.805153437677,0.0,0.03485101235,0.0215817593324,50.1951828921,0.146948752975,0.060136422613,2.03128603704,-0.366030496265,-0.192163360221,0.15994034845,-0.636863999963,0.534648041967,-0.892928389926,0.466998608424,0.146324010317,0.645753006385,0.049521336927,0.13131330362,-0.142052239821,-0.0173092183343,0.0352216902068,0.0344007712705,0.0409711881559,0.0424038036798,0.0380833838579,0.0420780918172,0.0404221788298,0.0409687007569,0.0437862882419,0.0,0.314401327747,0.598739827696,742.397220116,-62.4409191747,-64.6971160271,-46.94776119,3.12796624096,46.2196305118,-193.044320846,53.9050481009,33.034375779,108.009125319,-10.7641750947,-4.24446923679,-26.7107876299,18.9558174209,27.2612199381,-16.6875316952,48.5987043436,6.12337905608,56.1512868315,17.6834639929,-46.8816300079,17.3465108447,-0.963554917681,-1.28810669606,11.1792212909,4.90528209435
2019-01-18 18:27:19.600,0.0526877157648,0.973153483202,-0.0897985303333,0.209951090437,-1.40228783402,-0.611606527423,high,A,2,1,0,0,0,0,0,0.978707041617,1.54419984918,0.0518849723183,0.974232335614,-0.0804876859316,1.22092744192,-1.84195128695,-0.0410687203198,0.978970481948,2.36387016742,0.00529047248939,0.00693092555192,0.00835823097209,0.820502893361,0.542289877781,0.764892657304,0.00669294085649,0.842061450672,0.0,0.0379293909508,0.0220315136281,50.0922644551,0.0309902523387,-0.0345286092323,1.9549767117,-0.284566101206,-0.267958526366,0.878002526726,0.00563695425625,-0.0732205812567,-1.27726527047,0.0280017097485,0.358722775711,0.0346818584614,0.425126419011,-0.130968078732,0.0784678468971,0.118878216509,0.0693404974867,0.0684069155164,0.0607989287242,0.0621625838443,0.0647004071662,0.0618561943515,0.0622741070235,0.0618796398932,0.0592393960139,0.0,0.215628926368,0.601084578949,730.253997639,-67.4579540363,-60.4550114579,10.3956752939,28.6686719593,5.08317706117,-211.609548226,-23.8289340195,43.4510437224,56.9228957952,20.9109132955,-38.4385456858,8.06806066656,55.2186229013,-28.7759457079,-35.2929073468,-32.9785742555,71.127615951,-28.7005413275,14.8991699018,53.1917778874,-1.34512951856,14.2303022035,8.57879399053,1.46106371835,7.69826768052
2019-01-18 18:27:19.800,0.0499877324534,0.966313750678,-0.0900607247119,1.40453169774,-2.07980583194,-0.386340495137,high,A,2,1,0,0,0,0,0,0.971788028472,2.53920471146,0.0500911735019,0.972652705588,-0.0832254358756,1.18119747195,-1.73210120308,0.114083293469,0.977526859585,2.21126425957,0.00302128115722,0.00755632392838,0.00835465884143,0.801535293,0.360565039415,0.504269444227,0.00722319015274,0.670243647582,0.0,0.0249965186285,0.0187827129928,49.9871203658,-0.0868667424733,-0.126157879986,1.61951144233,-0.125096701906,-0.228150327396,1.16297906229,0.678708779631,-0.570696485657,-0.189672169542,-0.380412308771,0.0875859664314,-0.546135965548,0.0304514326154,0.0279121799871,0.23079723155,0.0685372371968,0.0509282940181,0.0494323824916,0.0504932223468,0.0455710277939,0.0442115699034,0.0439716900554,0.0440052527514,0.0436515047818,0.0458227376093,0.0,-0.408299781792,0.481401911561,723.532419635,-65.9798044703,-46.9363970105,72.2106558742,53.6083632288,-31.2647924044,-112.542448977,-77.1420883754,23.3977516263,-48.116532015,34.5731336518,-1.49682937831,39.7226745745,-10.0065250073,-5.25898362223,49.9869264124,-8.12634098223,-61.746983528,-5.36552806451,-21.6047587673,-18.6198584149,2.79881676363,-6.64237313522,3.48641694945,4.69875888782,-1.42056343162
2019-01-18 18:27:20.000,0.044163129598,0.974177533781,-0.0809669742428,1.47996185467,-2.08855164439,0.368729667731,high,A,2,1,0,0,0,0,0,0.978533545801,2.58617412995,0.0496945360409,0.971154218116,-0.0853801849497,1.2495958013,-1.77127273498,0.150113365532,0.976179398064,2.28472429968,0.00366738645294,0.00572296090603,0.00437266450569,0.807591979177,0.388109026424,0.515172691937,0.0058023671298,0.685561902427,0.0,0.0383246019434,0.0175117425372,49.904283613,-0.180471729253,-0.18535718156,1.09322329629,0.0963065613677,-0.0669396718417,0.88482825863,0.928772732728,-0.497856947984,1.17639751973,-0.203252526092,-0.233825136722,-0.0379631196798,-0.319306874418,0.240255643616,-0.0769757251595,-0.0348752249299,0.0262936741561,0.027078138455,0.0317105439092,0.0365110053609,0.0356940401497,0.0386487013588,0.0379396960063,0.0388742391332,0.0371126781004,0.0,0.210355449848,0.543438045896,721.25667611,-59.0383848688,-26.0679676535,128.872697612,70.5071916894,-51.2555079466,50.3095847528,-71.3102371856,-12.1383098394,-94.1104716994,8.0354042309,44.0328242139,5.77383024966,-47.8106601942,37.4599721798,15.2781286364,46.9222707705,-1.52118265555,43.2604673123,23.4862423676,-15.6844723266,5.24237972052,6.62744039307,-6.33327068273,-1.73999822385,4.13047569159
2019-01-18 18:27:20.200,0.0387838062593,0.979950308486,-0.0757418635621,2.51756558672,-1.63932386915,0.140024027189,high,A,2,1,0,0,0,0,0,0.983637952006,3.00751158927,0.0484267952374,0.973584003264,-0.0847460790653,1.33304561317,-1.70789905897,0.099109179233,0.978493458655,2.30450401805,0.00575727959669,0.00586976623389,0.00551459479274,0.920682737808,0.370082893409,0.494758478383,0.00548720440314,0.707827944316,0.0,0.077148684985,0.0108596255341,49.7959621768,-0.296004610604,-0.25557281755,0.40111930812,0.282195458512,0.113303551572,0.147599129992,0.542205137839,0.0437027921287,1.27295689591,0.292144007318,-0.127968617261,0.611972487636,0.0753872329864,-0.00216624433175,-0.0761860963829,0.0837094212411,0.059775502741,0.0660461713911,0.0636001871516,0.0647668216878,0.0700265549593,0.0670493197477,0.0697468865247,0.0692376432331,0.0710454261226,0.0,0.257985344773,0.734518200093,706.085490264,-63.9824559977,-16.062099332,156.258801466,59.5367718906,-62.5113137694,177.965014385,-23.2443098565,-42.9115941333,-40.2673977275,-31.9983962327,19.3671100322,-37.7812677886,15.6941302494,-1.63023379808,-51.9215075365,-20.2636781472,73.1295026316,-35.3565583215,1.74253860974,57.1541135478,3.46140679622,10.6590132573,25.3170660318,15.9105951092,10.5934349763
2019-01-18 18:27:20.400,0.0401117736267,0.978482597341,-0.076980047716,7.20039085803,-1.40500744545,2.78368674322,high,A,2,1,0,0,0,0,0,0.982325340928,7.84656525587,0.0465011469351,0.975380005766,-0.0832425193093,2.18953311917,-1.632194362,0.457546709369,0.980065445009,3.13771348612,0.00635817474776,0.0053360879937,0.00628052583109,2.59738340076,0.379278289846,1.21448890741,0.0048794084576,2.39831107252,0.0,0.0679448177485,0.00914391754945,49.6564180025,-0.437215428255,-0.33735836579,-0.366957696486,0.386310035792,0.246321601665,-0.661477065186,-0.205704119804,0.577378853233,0.00453515310597,0.459386712101,0.25754001572,0.246340438728,0.427282473074,-0.109864728036,0.265183867175,0.132331509207,0.0920243464134,0.0857340294858,0.0852038304573,0.079609440992,0.0721946902378,0.0746198140706,0.0704297696367,0.0704978850292,0.0686669103411,0.0,0.144648816267,0.767090299553,692.288862128,-66.4774891936,-3.29472363068,164.847501572,37.4142406175,-46.8771540642,217.701235041,47.2587375492,-27.7170015078,67.2345238963,-18.7192350895,-23.5266624388,1.15233215756,62.4401106914,-19.6723701921,32.086673721,-10.5763632129,-49.5388200624,22.8392178486,-1.13683589365,-47.4509760919,15.7730410376,1.71081622971,-13.5995481555,-0.806475591465,3.6644851963
2019-01-18 18:27:20.600,0.0543671634298,0.972777733593,-0.0852767707904,14.2189924554,-2.04467096718,8.85856327011,high,A,2,1,0,0,0,0,0,0.978020672108,16.8770426622,0.046683553522,0.974142567847,-0.0831374852261,4.50523225717,-1.77660793202,1.85884278095,0.978835430155,5.73344969965,0.00660230654283,0.00483111517554,0.00623213741889,5.34392891296,0.334109266057,3.63786107508,0.004139589648,5.89464195547,0.0,-0.0274908969815,0.0205340673733,49.5987044403,-0.489530454143,-0.31519166286,-0.999747150454,0.487190068385,0.381228852963,-1.02838069217,-0.707880192772,0.701810141301,-1.15509488651,0.133577544798,0.365358610517,-0.432294592704,0.0396178563144,0.184267862366,0.0863823166857,-0.0248312214384,0.016601106263,0.0049456031251,-0.00250620046448,-0.00430347023279,-0.00417564660263,-0.0106533978153,-0.00943600593937,-0.011557638936,-0.0109704968447,0.0,0.557578724058,0.742143643689,682.072818849,-64.3067741591,13.5608142328,155.443084623,11.1842019864,-8.5523378905,150.048174639,91.8889922669,20.4454362223,109.448355795,29.9568181034,-17.8222943999,50.8479259658,-5.42859219318,23.0290725565,50.9520184782,46.2874095759,-4.68603279445,27.7823204966,20.7486041585,38.5379028856,-7.79994315135,9.31010114992,24.1340200705,9.51361637837,6.08479021708
2019-01-18 18:27:20.800,0.0826956585117,0.956016107884,-0.1397215186,19.8640670278,-2.84401471798,11.0404674984,high,A,2,1,0,0,0,0,0,0.969704838201,22.9033076472,0.0516848773131,0.971286338627,-0.0914579832705,7.78091824673,-2.01689574601,3.80085511859,0.977335062919,9.29330099933,0.0163015003113,0.00889202293536,0.0242330223816,7.6922237894,0.49212951912,4.93438561844,0.00557719691295,8.65971106784,0.0,-0.106084729438,0.0184359467045,49.7059081619,-0.370319963131,-0.112306049096,-1.3398371565,0.624292094759,0.521206932461,-0.721549870033,-0.587953230431,0.314860969176,-0.928776971284,-0.277253202296,-0.0205674428032,-0.258509590781,-0.375310324196,0.094603829243,-0.284087282153,-0.0970467246163,-0.10451375131,-0.0985859265874,-0.0986291155952,-0.0987107157217,-0.0985271566054,-0.0949406261085,-0.0968912036388,-0.0954410010477,-0.0960543607257,0.0,0.362340827716,0.52359166432,660.99008357,-71.8681295918,19.3672670182,115.602195866,-26.0655075421,25.9247503444,-1.29164299119,68.8098122507,48.8743659361,31.1547959327,41.8409146596,21.6068543753,16.5017511461,-51.2404757161,26.0573940254,-43.9884295205,-7.0741978538,74.9822637757,-33.403165281,-2.85832849765,14.043905843,25.6311956942,10.7423527422,-2.09042736235,13.0430225568,15.4478076035
2019-01-18 18:27:21.000,0.116892908613,0.929997698862,-0.249639411787,19.6399725676,-1.35942125046,6.9476791285,high,A,2,1,0,0,0,0,0,0.969989436999,20.8769440739,0.0628357400064,0.965233663324,-0.118054431116,10.8201583917,-1.8968316491,5.02319172252,0.977035297674,12.3495908931,0.0310864960216,0.0192642478817,0.0688641890051,8.2511637257,0.557275520211,4.58576189437,0.00596950753093,9.02740828386,0.0,-0.0646538800553,0.013655889736,49.8856189228,-0.174350875703,0.164442761863,-1.43860315806,0.663951478308,0.509061771489,-0.0124787510054,-0.0474666818568,-0.361911591909,0.300012103823,-0.365346397434,-0.442916367882,0.293967976479,-0.12924037451,-0.348060590835,-0.0872778723085,-0.0767663314206,-0.109146456988,-0.101626665711,-0.0924821313746,-0.0891022119545,-0.0882822895937,-0.087310785588,-0.0843582527718,-0.0846650530368,-0.0838587790166,0.0,-0.258689824779,0.593720203823,655.975051675,-62.2343226674,40.2229909087,76.554947292,-40.4478309503,67.8612219919,-134.580664027,15.4687176539,51.8601467381,-62.8272375589,17.2712048601,47.0769903939,-27.1827404386,29.821672574,-9.17104681796,-4.42084427261,-17.7350409329,-46.7059797541,36.5824554314,7.80482405503,-35.4307221415,-10.4376190927,-3.18949236459,5.71186179996,-9.14312027597,-10.8335512911
2019-01-18 18:27:21.200,0.143027991792,0.904599669256,-0.331066625393,13.849592147,0.812191096118,1.54158570295,high,A,2,1,0,0,0,0,0,0.97383914406,13.9587729939,0.0793132170387,0.95363735257,-0.159737706308,12.8817634404,-1.41337452568,5.21866772839,0.976252897384,14.2450240371,0.043092780243,0.0304801512843,0.107037493903,6.88252016935,1.22085568054,4.3674788838,0.00604107358005,7.65741027948,0.0,0.00911850755421,0.0179344208111,49.9743994812,-0.0673419205541,0.337646574981,-1.44000318718,0.444112596567,0.202534016511,0.589004916982,0.40423934185,-0.84534703264,1.05609291431,-0.115800171184,-0.329659147822,0.141238352261,0.200825490659,-0.181153606808,0.127850015243,-0.0574245806498,-0.0104408317451,-0.0121395763105,-0.0141249036014,-0.0113316486036,-0.00654812552002,-0.00678655572874,-0.00664523582586,-0.00509172123931,-0.00486911802167,0.0,-0.0373800021289,0.675325177033,660.134438514,-42.5142141482,67.6977921715,36.0620734939,-36.5250546366,93.2613999625,-189.532122752,-40.9601455883,15.7296226588,-80.2947849224,-23.96315493,4.44065937611,-16.1191531834,54.2906987432,-18.8668532645,50.2848341005,24.2936963529,-25.3409455463,-8.18010285312,-5.8885359146,42.9374032873,-6.40406054643,-3.7108932468,-7.74434117746,5.85832652092,7.04173365309
2019-01-18 18:27:21.400,0.147048309137,0.882996539743,-0.352589756005,11.5012153735,-3.00075597756,-3.2120731945,high,A,2,1,0,0,0,0,0,0.962094397893,12.3125913483,0.0973573008517,0.937478391113,-0.205879021715,14.3790384049,-1.64027987709,4.65998485811,0.972662305031,15.7958706636,0.0453361099895,0.0384090580129,0.122186424004,4.85558938351,1.38652468428,5.26851725574,0.00708579996062,5.58930263037,0.0,0.0292668154982,0.0147229668731,49.941355189,-0.0808865222046,0.369627654202,-1.36651624972,0.000692765367613,-0.294197701276,0.769837937907,0.463197929199,-0.67900165769,0.537960467663,0.188609924592,0.206016546378,-0.359733815391,0.0291085515358,0.319923654168,-0.0624353211946,0.0456325519365,0.0473288764187,0.0473912006182,0.0463704762349,0.0437223542913,0.0387312116819,0.0408805194448,0.0397320368962,0.0383761949552,0.0377796044367,0.0,-0.892181178427,0.610191352488,663.587379005,-22.8822513564,90.2724962091,-10.2407988779,-25.0275102738,83.0370039191,-147.158826626,-70.6803988176,-36.735265007,-11.3739720806,-36.2115294579,-48.5976711238,20.3673751138,-37.4311634112,10.2700434122,-28.205680696,-6.7089326275,66.1610682161,-32.9634771906,-6.16950049863,-38.3221772022,14.2321671095,2.6356642884,1.59811528974,-9.92756893867,-10.8289825441
2019-01-18 18:27:21.600,0.123423115306,0.873800768907,-0.407512736026,17.069196045,-12.5518487095,-5.7785784385,high,A,2,1,0,0,0,0,0,0.972022468443,21.9612915927,0.111242524465,0.920031419708,-0.2609678031,16.0238392694,-3.49808675443,3.23294066116,0.970945159617,18.148325053,0.0361175692207,0.0398080204513,0.126870151963,3.38690092947,4.64565509712,6.81191233959,0.0052987999263,4.42308101464,0.0,-0.00572171754897,0.0117493236928,49.9157766071,-0.0855453837966,0.387519219822,-1.09928074578,-0.432382677536,-0.670613394761,0.562970776891,0.214893155515,0.1141491475,-0.554870748544,0.265714126211,0.445378845004,-0.176938251868,-0.168786303662,0.119974202493,-0.0536333384913,0.0648651945035,0.00894553846621,0.00347925000327,0.000415189755443,-0.00382275671296,-0.00452011335349,-0.0112089631226,-0.0116602204007,-0.0121664632305,-0.0119724199193,0.0,-0.721671580076,0.489848337988,683.944673879,13.8466395046,123.683689996,-39.6309229701,6.90805568479,55.4503131869,-16.3799655455,-41.2198881879,-48.5204538416,75.776240349,3.2059078713,-24.3318002492,18.3030754703,-56.0651535835,9.14059571482,-43.8711109437,-30.4515284779,-54.4517105975,32.1890175494,-3.1462111324,-2.53818910069,-38.5578655933,-23.0247616135,-18.153742976,-9.80487383112,-9.1964708734
2019-01-18 18:27:21.800,0.0849021785125,0.890764229983,-0.480248077729,20.1410413306,-16.903563821,-2.14368528726,high,A,2,1,0,0,0,0,0,1.0155331159,26.381573159,0.116331693645,0.906362502439,-0.326796354257,17.0108474153,-5.97456889673,1.39923256826,0.977197233583,19.7324134692,0.027662260596,0.0312305985578,0.119746639551,3.61121198051,7.05276075777,6.46678147524,0.0192035350849,5.45769964557,0.0,-0.0458223535183,0.0136911913204,49.9960630105,0.016348990771,0.485442339856,-0.583137862265,-0.666249705993,-0.709399366584,0.147153860608,-0.105756704801,0.875031618232,-0.971249506516,0.0402749591338,0.0273004924044,0.360068687616,0.00439317412693,-0.343466419431,0.0953974054804,-0.101915548828,-0.0708390346433,-0.0743894193183,-0.0772600404673,-0.0747368786483,-0.0737273500242,-0.0678734393365,-0.0684387133151,-0.0677983756842,-0.068435724638,0.0,-0.00868461433664,0.540616818354,701.654434381,47.583864095,146.441207581,-67.5121063288,32.4448929544,1.57710187205,115.679321482,8.20857104392,-27.4417768345,66.4633502944,23.87115622,21.6183258225,-35.7130299461,19.9815548008,-36.1480499635,27.0136786069,3.18777453221,-40.9215327435,-36.8627665364,-22.1357910948,8.12245958726,15.9185122573,2.75273108483,-4.2328564701,-8.56208966707,-8.84642685534
2019-01-18 18:27:22.000,0.0513781723671,0.926808179134,-0.401229486871,12.4293458346,-10.7449158141,3.70971511579,high,A,2,1,0,0,0,0,0,1.01123598563,16.843510322,0.111112112621,0.901494514314,-0.370381015635,15.7717272164,-7.29138574608,0.177440504497,0.984119091489,18.7224472483,0.0367426624428,0.0231823758184,0.0785389702875,3.71055363022,7.08885000673,4.74393458606,0.0230603848631,5.31231452396,0.0,-0.0505379620164,0.0103473759814,50.1082884493,0.149083955114,0.582591251136,0.0361217225755,-0.722979976578,-0.476094097241,-0.342825549869,-0.359778129688,0.834227482872,-0.341238788445,-0.281930714464,-0.489975557242,0.17345259979,0.0847733351801,-0.112105286747,-0.109578492536,-0.109445006199,-0.07450562666,-0.0617373086266,-0.0512588570801,-0.0474442053638,-0.0458137685088,-0.0477090290674,-0.0451342684618,-0.0451465686718,-0.0437147184466,0.0,0.328359034134,0.703795491371,694.838521448,56.1257535218,136.032966867,-110.34081566,26.5459740748,-76.1487494223,164.609284833,29.7568630788,-3.2699308614,-37.2735857155,-7.3135830716,14.4136406725,-43.2320944462,37.334623219,-14.7152336437,13.2413254338,12.9134155905,81.071439305,-1.36171302478,21.0001901988,-22.5175270019,-0.425272731112,6.50550011958,15.0064856025,15.6275800308,15.9489919408
2019-01-18 18:28:28.600,0.0277945735644,0.957093087664,-0.185299156244,2.17965283405,-2.57304486765,3.30889436569,half,A,1,1,0,0,0,0,0,0.975261756698,4.72442888519,0.0962623901132,0.906010412448,-0.359657639711,12.8616739275,-7.49365634895,-0.429023622638,0.984997811439,16.0303613835,0.049669760172,0.0311240182379,0.0998285172661,6.12881300522,6.90055113127,3.85454683765,0.0225081278709,7.60160682632,0.0,-0.0354464472464,0.0111412688697,50.1774333973,0.235954384364,0.599379200646,0.602753173602,-0.658966541662,-0.12356324351,-0.714982843103,-0.429638235881,-0.027467727702,0.585638190126,-0.316921794797,-0.334377502651,-0.433905861893,-0.123969135342,0.255026753488,-0.166570101722,0.0480586206701,-0.00145325155421,-0.00509507906575,-0.0117334829983,-0.0174323284813,-0.0193830064002,-0.020483791387,-0.0236571704641,-0.0236389619488,-0.0255399049983,0.0,0.298551213847,0.817456817926,673.015703681,48.975334738,103.059712479,-151.80064502,1.91950514946,-136.877653737,118.30479322,23.1297366385,18.5911390772,-102.603237893,-29.1695703813,-13.3039264008,32.5374784227,-14.793050734,50.8257891082,-21.4729895342,2.06743053484,-22.4225847457,58.4710961857,14.9054177332,50.7811224958,10.1746826172,12.0684120532,3.24402820151,6.10626385688,5.60628295116
2019-01-18 18:28:28.800,0.0101425618838,0.968690925698,-0.0624585970161,-0.932477051264,-0.0607098494246,-0.313584469904,half,A,1,1,0,0,0,0,0,0.970755405564,0.985664423988,0.0741148184618,0.916692288521,-0.314889634982,10.3979957277,-7.63913983987,-0.738218651447,0.984483855023,13.8681766219,0.0540776092506,0.0402138390175,0.158311998087,8.25464840499,6.69660553988,3.73748772056,0.0228465509936,9.82774951041,0.0,-0.0130438659608,0.0153611162533,50.2094928399,0.281919486001,0.541907174657,1.04872906045,-0.47903532924,0.231412091608,-0.759384577621,-0.247569355751,-0.91600833909,0.808466771549,0.0127799169395,0.284620364431,-0.319711039709,-0.147270282042,-0.0401952637319,0.122828205792,-0.00966140249442,-0.00921579109234,-0.0205868276718,-0.0238676055668,-0.0195152546209,-0.0176291385856,-0.0133431829479,-0.00947364620822,-0.00903902159346,-0.00644593753947,0.0,0.0309143338363,0.640128287352,658.125586974,48.1280603573,71.2434481221,-164.820758668,-14.4593158141,-137.619936793,21.0661981876,12.475432138,37.4061577833,-39.0090897679,4.79830565615,-1.4686114693,69.6853850827,-14.1421577088,23.2295672503,24.4090912375,13.101648888,-29.3809784384,-38.3155847174,-9.56419125777,-23.1842267298,17.6065438526,6.91700509712,14.8230083191,8.8272356894,9.54440152678
2019-01-18 18:28:29.000,0.00382086538219,0.968254603143,-0.0891013176043,0.715297949502,-0.578014030055,0.43817131187,half,A,1,1,0,0,0,0,0,0.972353135604,1.01869793072,0.050243577836,0.930901965755,-0.270974895248,8.60034282375,-7.23534951529,-0.129844567052,0.986193644641,11.9858610523,0.0465292770515,0.0409818093391,0.180721599504,9.09773937139,7.09350748043,3.54647135032,0.0211572717586,11.1745593906,0.0,0.0206398896715,0.0143657672976,50.1861809757,0.268416360833,0.397033417458,1.29927116787,-0.237702870693,0.450232398622,-0.456688223951,0.0602653609722,-1.02941021505,0.0926406741559,0.285609475714,0.419110305289,0.340697045568,0.1016979769,-0.271179114594,0.0736631854849,-0.0634996714779,-0.00973446781979,0.0118968441249,0.0291323213398,0.033942618043,0.037120901682,0.0338460045293,0.0318682531559,0.0322646849589,0.0296155351363,0.0,0.269349508919,0.631654322148,649.718424853,53.0978902316,41.8605195658,-148.530244053,-19.9138678959,-79.7440642984,-78.4914276629,2.52401544456,32.9788584181,78.9702649138,44.4550062366,25.7671038357,-5.56356445129,30.813083641,-41.7725274153,25.3041055798,5.88600389522,70.8972609521,7.66606453722,19.1531263163,6.78361226817,-18.0754231807,-2.10839835583,-8.59330800455,-0.306003394385,-1.37754761497
2019-01-18 18:28:29.200,0.0132095542287,0.96794352842,-0.113664526808,1.73384073099,-0.334464816931,2.54405767565,half,A,1,1,0,0,0,0,0,0.974683944255,3.09682092657,0.0318746509898,0.946592425674,-0.222000193712,6.04445027141,-5.19911886653,1.25726145197,0.986637223943,8.84178260791,0.0310375175361,0.0317235905029,0.176076304111,8.36751054999,7.01525304294,2.30583934384,0.0208260468352,10.435979419,0.0,0.0413898829728,0.0111081644724,50.0999550981,0.18858385213,0.167866681227,1.31724813253,0.00754288849357,0.456479064797,0.0439814096698,0.293200579532,-0.245528242396,-0.741002084647,0.171721723112,-0.100431948406,0.397938098616,0.166973886918,0.15992668433,-0.116237285281,0.116085445513,0.0853750619236,0.081522491606,0.0666442345683,0.0571159563474,0.0511300680522,0.0534924230627,0.0542165768624,0.0536779691912,0.05670140878,0.0,0.356476218444,0.637601526499,638.44113786,54.4781614309,7.41944285805,-114.288491767,-22.1576703274,6.64889397259,-137.004781653,-8.12113803478,1.20455848946,112.789684603,29.4104653747,18.4880607512,-63.3454416614,20.9988231127,-0.277449197952,-26.7653474267,-4.88732194559,-27.4704768968,44.2791585544,-0.844427127925,29.8073429932,31.1248299611,15.5659939874,20.7086024678,11.2667823924,12.8685280002
2019-01-18 18:28:29.400,0.0267102105908,0.972612832962,-0.0968352517915,1.33802102034,-0.316931778195,1.37231724718,half,A,1,1,0,0,0,0,0,0.977786389853,1.94267872532,0.0221759896695,0.960233859504,-0.158098056056,2.91061355304,-2.43468019273,1.84326187438,0.980346102935,4.76863353564,0.0171289582581,0.0171794809686,0.126085461693,4.78721558657,4.17271777786,1.61064555633,0.0153265560683,6.08207947643,0.0,0.0405905883497,0.0126567511012,49.9838511889,0.0768945812809,-0.0978115690652,1.13528564427,0.234930541931,0.286383433224,0.522117585164,0.331944513885,0.780261957994,-0.718752863859,-0.123826211916,-0.40069432775,-0.191749694188,-0.0221806139147,0.326151525379,0.107955721112,0.104484279156,0.0686372380448,0.0460407163543,0.0451308006887,0.0537416956158,0.0608751889723,0.0606642251301,0.0616674094556,0.0625602125755,0.0593063109647,0.0,-0.579021282813,0.505737692955,627.398822396,55.3512658861,-26.9013303759,-63.6308109003,-17.5796151998,92.8622609655,-120.887165627,-8.99858301776,-26.4702478737,27.9344156663,-17.2982671417,-8.94171775829,4.13243514799,-20.4890678719,54.8287302338,3.64442449419,13.505439779,-26.6283393305,-43.1026050093,0.986760090306,-33.348115608,-14.18465156,-4.86508444953,-9.07491293839,0.287701423119,-2.01203483631
2019-01-18 18:28:29.600,0.0324949225855,0.976296022379,-0.105251213895,0.248785088993,-1.23497119442,0.354214787937,half,A,1,1,0,0,0,0,0,0.982490540073,1.30863134134,0.0190287813726,0.968481833378,-0.108768343893,0.880520095435,-0.849689422779,1.28401181974,0.975555195341,2.17948703885,0.0115003429242,0.00645314437542,0.041393456767,1.12592674768,0.934235454416,1.40199467347,0.00417644798021,1.4768440727,0.0,0.045817719973,0.0119484479132,49.8737164782,-0.0291563695841,-0.348285797012,0.813402888876,0.42548434205,0.0372237814628,0.762431068758,0.183186022154,1.16277634574,0.167263289479,-0.174530085279,0.0215308534478,-0.327380997923,-0.0461122662538,-0.126986874042,0.203394017845,-0.0385055739215,0.0171589645768,0.0454609482081,0.0632940206404,0.0610535443455,0.0550980018124,0.0524423624845,0.0493083948129,0.0476953858242,0.0509406690017,0.0,0.432844951445,0.594020873483,623.890971565,62.9463539278,-51.9566859289,3.39190554932,-0.866184289484,153.118105824,-33.2186226777,5.17189597993,-21.3423324562,-78.4080717825,-31.0323251841,-12.0220491288,74.8266795079,-8.5865590867,-4.96269962449,36.7729436299,6.76848883259,66.8950571072,20.8273547134,12.9548422423,35.9296090462,7.01998803054,7.50260266923,10.9722227629,2.65805055697,5.69142239045
2019-01-18 18:28:29.800,0.0335190537047,0.973880351002,-0.115850340349,-0.548983372477,-1.80778326481,1.10993034118,half,A,1,1,0,0,0,0,0,0.981319400801,2.19121163698,0.0199828613959,0.971279710601,-0.097193541244,0.425747394347,-0.722145822306,0.917517815652,0.976564802692,1.75728416415,0.0125615023324,0.00348388069629,0.0197809221834,1.04435436898,0.665487043012,0.995207840432,0.00477991014535,0.819660775675,0.0,0.0720419912423,0.0111214916287,49.7544458721,-0.142997224616,-0.583254986217,0.380583748833,0.51983909801,-0.212833151976,0.626761801214,-0.061041085486,0.548545697138,0.924835417971,0.0783089412515,0.49452543368,0.230465686544,0.138828329804,-0.158764245502,-0.0765038898741,0.0821582864365,0.0839738111514,0.0811779087235,0.0599099950128,0.0541831666278,0.0569749042841,0.0625395590155,0.0681491904665,0.0710477330509,0.0681846861428,0.0,0.203086316965,0.648990801387,603.219536991,52.5803346024,-90.412782348,54.1888385072,1.34944225387,143.72267919,60.0209252216,5.78708056534,-5.01759147565,-103.539586086,-6.69161694853,2.88343678298,11.2763662513,25.1623439205,-46.6275804289,-14.6063544838,-7.21667843141,-26.4231496587,33.9652076293,-1.12543283939,-3.02344135318,23.3306820537,13.5205077634,11.3696581667,18.314029136,14.7908580593
2019-01-18 18:28:30.000,0.0343390856705,0.971590443496,-0.0931898455537,-0.321676592288,-1.91516139367,0.562403310571,half,A,1,1,0,0,0,0,0,0.976653218912,2.02178546774,0.0240156153604,0.971762963567,-0.102315416,0.527547470843,-1.03122107968,1.06351577906,0.977547771583,1.92997100478,0.0126542305807,0.00324594117671,0.0110320989361,0.906098193101,0.724843230092,0.828829810103,0.00386520530855,0.728678033501,0.0,0.0655601377712,0.0105120550902,49.6223609833,-0.266483534066,-0.791816914479,-0.107530220021,0.493387035151,-0.373187976759,0.185592746823,-0.229281156453,-0.510469947335,0.717601252612,0.301954349593,0.281073126665,0.476993729666,0.160899981175,0.315224420558,-0.00610409958472,0.14521272494,0.0841802748186,0.055567347865,0.0645145978954,0.0766957276935,0.0795913603201,0.0731927431256,0.065946997731,0.0617350921431,0.0640535799374,0.0,0.277714328081,0.753532022147,586.841795221,45.8350787424,-118.619041883,103.066913748,9.4863788127,88.797880468,130.498757958,12.3742411246,27.4241925817,-0.523811050362,41.8125566588,30.4234679531,-53.5854886687,28.2125954692,42.4509065622,-3.62508998799,25.9126767294,-11.6116019893,-31.2233467814,20.6845983429,2.21241484836,-12.0962080998,3.48161801282,3.63700022078,-1.89213236468,1.80108143353
2019-01-18 18:28:30.200,0.0319797873316,0.974249454081,-0.0812751827685,0.120282646368,-2.31354090741,-0.414547357555,half,A,1,1,0,0,0,0,0,0.978156613692,2.35346318368,0.0287087690186,0.97276210539,-0.101011060194,0.428378253654,-1.32047555924,0.921396000827,0.978515017931,2.15243188027,0.0080510088671,0.00284833307497,0.0131636392255,0.913966834288,0.844266205428,1.01066522801,0.0029145192797,0.584269175272,0.0,-0.0257551945664,0.0107054440248,49.57190098,-0.303922878065,-0.869399316596,-0.496089299686,0.437149901599,-0.305457006738,-0.257657914978,-0.138053259765,-1.00826458393,-0.175517683119,0.237717277956,-0.252973927721,-0.0150138015973,-0.0150993708908,0.20188368669,0.225738746369,-0.0436085387742,-0.0108391955099,0.0143423088701,0.017480211785,-0.00229017266436,-0.0173279328222,-0.0175996401753,-0.0136661730792,-0.0107298881843,-0.0135996828089,0.0,0.747074390248,0.989246714585,562.593041289,30.7077908435,-146.798609895,131.791683304,10.3800824322,-2.18358378496,131.316262795,10.9157935922,38.2974977226,108.641762796,42.8033767352,21.3238668958,-7.02450748733,-9.77547741293,53.7016490752,39.6041886905,12.8454512718,66.5368703834,34.6582136169,5.58505323789,34.8456174052,34.2325726363,18.5605267294,21.1840391507,25.6194158805,22.1943149791
2019-01-18 18:28:30.400,0.0272223355176,0.975709986113,-0.0918096878385,0.611860204719,-2.64682858185,0.265491311624,half,A,1,1,0,0,0,0,0,0.980397904594,2.72957141111,0.0310442325668,0.974056515006,-0.0973685870327,0.241381499276,-1.70586952006,0.541634940156,0.979467344654,2.0912236277,0.00326653346626,0.00178792313901,0.0119277521754,0.677687760055,0.83183547106,0.638606339889,0.00227590389534,0.474466650473,0.0,-0.116445074728,0.0112450947462,49.6913909491,-0.167710761805,-0.728123663258,-0.655767689429,0.432613875999,0.0225491922823,-0.427651584458,0.177843565836,-0.486928055184,-0.770349914003,-0.0537683251557,-0.313289250593,-0.418279180698,-0.113189706512,-0.345027727007,-0.0996885600085,-0.107332238905,-0.0826260606019,-0.0944024828649,-0.121572755935,-0.115759580131,-0.101258765501,-0.0993079033182,-0.103307864016,-0.107636131278,-0.105709135206,0.0,0.559132777671,0.959776354399,525.665343201,2.71595311148,-177.674256827,132.531956716,0.518581197591,-98.2538683824,60.5478761572,2.05270679148,18.7353869824,105.164074988,-1.3850850363,-4.95100914693,73.1307049157,-2.22457811339,-29.0125215521,16.3031868026,2.71602136717,-12.2126654178,35.9535307022,21.494889477,-3.48909592906,9.53128401863,20.5914792802,15.4273869081,12.0734268707,15.0008915638
2019-01-18 18:28:30.600,0.0257900297026,0.973484764087,-0.0887440383923,1.35954984707,-2.15724701958,0.611020761639,half,A,1,1,0,0,0,0,0,0.977861552517,2.62210542528,0.0308908690854,0.97420183686,-0.0960200514662,0.244969637064,-2.01258872696,0.414752192566,0.979479871765,2.20446141102,0.00352229991727,0.00167924485274,0.0124462320685,0.68467634209,0.483711653691,0.501453127208,0.00226498169864,0.51155178303,0.0,-0.0750898133945,0.00915701352835,49.8904283929,0.0490825509913,-0.469328944691,-0.660774099101,0.380990744778,0.385229946971,-0.346818277021,0.379477251069,0.460791923056,-0.542002671091,-0.326796519148,0.0420187820548,-0.163299176652,-0.103548600623,-0.246055590583,-0.345135758612,-0.0697902331776,-0.125543434836,-0.139998723617,-0.106265057354,-0.0918939220549,-0.0992032064464,-0.102273371585,-0.0986021306245,-0.0928016907393,-0.0935329419747,0.0,0.24751214989,0.894877106574,509.537686703,-4.3947746945,-176.53014364,137.262161267,13.2527063337,-134.441069565,-16.8162058745,18.1900132461,10.4193908681,14.8485439469,-12.1564620073,10.0352226095,55.9594335066,47.3368396541,-5.39954568111,-7.18610559819,28.2512459679,-9.33267862816,-31.3451169217,12.6430095484,20.0833982955,0.199813369596,-4.3947004395,1.70957030008,3.42562703664,0.885571137009
2019-01-18 18:28:30.800,0.0264066878467,0.972717590373,-0.082962209062,0.97990099538,-1.36728587176,0.198938545837,half,A,1,1,0,0,0,0,0,0.976606139606,1.69388699767,0.0298761632956,0.973605431525,-0.0923052173273,0.366822288129,-2.03464117318,0.388872818883,0.978499138354,2.26867068708,0.003831190683,0.00139874909002,0.0124662455928,0.747653609558,0.442423712134,0.509149976882,0.00195314593368,0.385191865086,0.0,0.0184949831636,0.00756275081173,49.9878525307,0.162780091081,-0.286739695273,-0.684731445999,0.12549551778,0.486777630949,-0.211992151465,0.180294605449,0.850754928898,0.131555386352,-0.330114522017,0.153072468192,0.198096208024,-0.0824703488586,0.206531981964,0.0628915027311,-0.0752732635446,-0.0395800172547,0.00539003901298,0.00266449004697,-0.0159935777384,-0.0119218176119,-0.00241237367911,-0.000644909345853,-0.00472348804049,-0.00385658337333,0.0,0.220106692861,0.999455078651,502.318844783,-2.4753524748,-155.59568229,132.850637222,32.6007793154,-110.971243351,-74.6096603997,33.0477500452,4.91544720435,-79.0170020889,7.0330077901,23.828048763,-47.3425488664,15.6590577731,47.9039786538,5.73314184996,-5.79843542977,41.2824215037,22.3037562478,-17.9444083197,-6.05235902776,12.394186078,10.0791098632,4.32116456626,4.41555859194,6.56413208437
2019-01-18 18:28:31.000,0.0251113041015,0.972896850312,-0.092921495212,0.0915467818488,-1.55500540918,0.708093002809,half,A,1,1,0,0,0,0,0,0.977646798805,1.71108688747,0.0284748716951,0.973441514744,-0.0884837431378,0.47357731385,-1.99251153058,0.321899929154,0.977887038021,2.18864989549,0.00376939342485,0.00141758875796,0.0052042556882,0.626677968766,0.478879989161,0.412609709631,0.00138553215225,0.449075426019,0.0,0.0347399605648,0.00581374665371,49.9533512149,0.142346099714,-0.217713019285,-0.745807673544,-0.287684799528,0.283798846571,-0.0894308214393,-0.264742636849,0.36258106736,0.546478536716,-0.00152458810198,-0.0813293625882,0.0992476832827,0.012266291282,0.090563101682,0.222731200647,0.0444951303822,0.0849499721504,0.0568698252738,0.0291487726759,0.0462696606075,0.0513849457389,0.0405755963886,0.0352848680702,0.0385775415799,0.0382432196696,0.0,-0.705800601148,0.838401914009,497.901111761,2.31618662724,-122.32775028,113.596327029,47.5174271623,-43.0946009348,-89.5041049957,29.1575126438,-0.210508205737,-80.04067226,22.5819569417,6.4337359411,-57.884647199,-40.9463965896,-1.40011014228,12.4760200635,-14.790137689,-22.522034445,14.344205702,22.6345898352,0.00776430217621,-10.3004379074,-2.68614317335,1.483476551,-0.54502302671,-2.36073935
2019-01-18 18:28:31.200,0.0249938356239,0.968801791054,-0.0951624993652,1.25715515211,-2.22605818662,0.141102187168,half,A,1,1,0,0,0,0,0,0.973785142346,2.5604069899,0.0269173300206,0.972976739337,-0.0888125187731,0.736715937916,-2.04432766273,0.251683075254,0.97740902526,2.27842014919,0.00261589847396,0.00231742372096,0.00560769490302,0.553125704197,0.485609256019,0.399123381929,0.00216936663851,0.462677231031,0.0,-0.023542597765,0.00723600107991,49.9265773351,0.12768465486,-0.126999053675,-0.696623025775,-0.621489949635,-0.0108575886406,0.0945269822422,-0.507705674632,-0.43048840361,0.378184673081,0.354704001973,-0.159097053675,-0.147750432391,0.117040685509,-0.195707024534,-0.14296973965,0.0855235129445,0.00251830079663,-0.0232973088478,0.0098921320628,-0.000741684337779,-0.0181899779549,-0.0124862109241,-0.00658868579198,-0.0102985637771,-0.011260371967,0.0,-0.08314277367,0.546856312423,499.171853948,12.7514583317,-76.0203776358,84.6028682343,56.6633586112,46.0787917783,-52.32218021,10.1375737274,-0.0283554273412,12.6467583472,12.8175060391,-16.3856840141,41.1956883151,-8.75856396968,-43.2516364551,-8.4916138438,21.2508245694,-14.9780251299,-35.9404468561,-10.0358781053,9.46798346301,8.45835779075,-1.93526641086,-3.94170936973,-0.175445008036,1.29779253829
2019-01-18 18:28:31.400,0.0240715534333,0.953432011025,-0.0940212257886,4.33193844437,-1.40285594281,-3.56119201391,half,A,1,1,0,0,0,0,0,0.958359029921,5.78063872267,0.0255992910376,0.969507165494,-0.0909368592764,1.43865857092,-1.8925468353,-0.272757700805,0.974109427965,2.84961607235,0.00111903833045,0.00818536754911,0.00448271056191,1.49124339603,0.525331785931,1.62729358509,0.00800687377401,1.50815555459,0.0,-0.0518157585985,0.00740600277315,49.9825515469,0.193411476478,0.0524439319995,-0.474387300309,-0.731307805942,-0.229062848501,0.297282708556,-0.332710842811,-0.780462424346,-0.157611975001,0.2826769208,0.0520057317092,-0.0945745347511,0.00557530990628,-0.0123355500899,-0.133024338093,-0.106210921938,-0.0886814990176,-0.0357484137305,-0.0551129396395,-0.0619485381556,-0.0412704380414,-0.041965766109,-0.049293894784,-0.0465783839263,-0.0448593574923,0.0,0.448177851904,0.632541000141,493.396033601,15.9906461665,-31.9930233974,37.526789021,45.9654823043,112.328387163,6.63186458081,-20.9947272737,-4.28191992064,87.4697159516,-17.2524014428,-15.9509969859,63.6830966999,40.3929621093,14.284210781,-7.51845311381,-0.795813745614,39.1172275619,31.1836777509,-5.91195655906,-11.5313210463,-0.442484314788,10.1787778404,10.2622438819,5.29667231674,4.26420057316
2019-01-18 18:28:31.600,0.00781671362493,0.91972760481,-0.123623317457,9.8532629203,0.129772056438,-8.29631771972,half,A,1,1,0,0,0,0,0,0.928031622673,12.881479677,0.0223650207222,0.96017676861,-0.0962391308795,2.97889235685,-1.42978006225,-1.6997258727,0.965381714311,4.54160078334,0.0071705507897,0.0212235390629,0.0141381164494,3.66079457106,0.850385989516,3.60862290789,0.0197338867265,4.35475990091,0.0,-0.0236755816795,0.00639332388714,50.0338175194,0.251109567955,0.222462353996,-0.19625305746,-0.677900504926,-0.377194274121,0.326773961844,0.0521505166436,-0.459368492571,-0.551815079817,-0.205741659148,0.136341822452,0.0790539733951,-0.174937019958,0.135653381227,0.145773604731,-0.0786814427065,0.00455600015238,-0.0204850890444,-0.0248223513154,0.00135295461388,-0.011193774908,-0.0138124742931,-0.0042905789914,-0.00449812306992,-0.00633402956254,0.0,0.446054085965,0.620142609585,480.60689078,12.0710448158,7.33985433002,-20.7671911641,18.8373718089,132.622735232,58.4487240949,-40.0017112876,-5.99046391632,65.4056652442,-22.7600555338,12.6005916752,-24.8480314788,12.4404194522,46.6070471235,21.8823939757,-9.86958310725,-11.9688106741,11.8387190322,32.9456822058,24.2392660726,8.94342642781,0.835446512368,2.3461946333,8.10967590612,8.73068825753
2019-01-18 18:28:31.800,-0.0282052937268,0.885984105284,-0.172242873025,17.6620101687,-1.09595596579,-10.9802775548,half,A,1,1,0,0,0,0,0,0.903012170858,20.8258065356,0.0133658001506,0.945593325476,-0.110155603318,5.69596907712,-1.25289821995,-3.63160892544,0.952906817368,7.57555096839,0.0215257714599,0.0355065647952,0.0333401105624,6.86562054802,0.7759238226,4.97004734778,0.0308143041236,7.75991547858,0.0,-0.00123344261532,0.00529590508873,50.0127195355,0.232797050006,0.307315954024,0.037446991779,-0.533022970269,-0.455152837026,0.118837464219,0.335578296946,0.21006453465,-0.394988470834,-0.477713365197,-0.0494492080149,0.055950246795,-0.0454171771796,-0.0773103609945,0.00774642187901,0.12450647524,0.0434085183178,0.0218868654577,0.053093352653,0.0250114737438,0.0269766114446,0.0349628856919,0.0263104230962,0.0248942299848,0.0272953849067,0.0,-0.211334465578,0.702140844833,478.282009275,18.4503414636,56.763839739,-65.6351917261,-2.03267989525,115.055728561,90.8274266895,-19.7804311643,9.16903475397,-17.4092346209,14.1400313515,33.6341375933,-55.6938410821,-28.2984313171,-15.4367147131,8.96702722845,22.1852106754,-13.1968333143,-31.2623250879,-25.5496871967,-11.6369487901,0.000572427642124,3.20449080297,0.27080135656,-6.16542004227,-6.58284380726
2019-01-18 18:28:32.000,-0.0656087818937,0.892028223468,-0.208067603246,17.537982643,-5.28992573682,-7.73390698867,half,A,1,1,0,0,0,0,0,0.918319656354,19.8841008546,-0.00197011147281,0.932145097659,-0.131006502349,8.45564935172,-1.9066715308,-4.95374984785,0.943192403493,10.6072532779,0.0373431999967,0.0383456546069,0.0485726959472,7.84832088261,1.82922269162,4.79946390659,0.031035468432,8.51869188374,0.0,0.0159324603311,0.00521983378749,49.9629063072,0.182617880485,0.346395054864,0.240738149056,-0.2840870461,-0.385353825647,-0.16684450641,0.373204831551,0.685015975902,0.198586374091,-0.107256681918,-0.147058179195,-0.0522272994445,0.200366254342,-0.0831969354362,-0.115283401832,0.0221341888833,-0.00195992047162,0.0452226832049,0.00667684417135,0.0195816410941,0.0287718644207,0.0166389112287,0.0227130658367,0.0256204535289,0.0226635333317,0.0,-0.04538192202,0.795581850032,485.886538972,34.4217224843,112.458672488,-92.2229016836,-13.3944384591,63.7252007325,83.7405291705,21.5352179746,22.6451285293,-75.2110804064,37.01135355,5.74205982649,17.5970117654,-8.60681618588,-40.7129105821,-26.5464777727,-8.06463707144,23.6882606447,23.5829293072,-0.34256283335,-9.70668443495,-13.0850197561,-11.2413533625,-7.78410484308,-1.13895842954,-0.855196523547
2019-01-18 18:28:32.200,-0.0863616299681,0.944509270805,-0.232454682622,3.93902003934,-8.59505491266,2.20177865817,half,A,1,1,0,0,0,0,0,0.976519980973,9.70766074199,-0.0205489338177,0.927413834408,-0.154262033584,9.09689489464,-3.08001311471,-4.70480223863,0.943004600521,11.940015587,0.0475185488331,0.0337929118536,0.0589794558671,7.15479219615,3.25824181558,5.17585825184,0.0307876986754,7.40068260501,0.0,0.0435574376284,0.0060977614418,49.9168720504,0.133798297769,0.369719118828,0.418403847578,0.0417111532873,-0.161656158233,-0.349643118225,0.169911987725,0.571078644669,0.60131759295,0.440932341303,0.0264929664697,-0.0200223783102,0.0843074520596,0.159708291357,0.1177622797,-0.0740049322237,0.031381758869,0.00116268996628,0.0194699287382,0.0301547974187,0.0130510665168,0.0264391202146,0.0240823131925,0.0198010011861,0.0232236922365,0.0,0.309145557919,0.81809151628,480.68525016,37.1049098896,148.71158863,-118.809984815,-33.7555759066,-22.8809099722,21.4942403805,36.8142616084,5.37017741102,-59.5626356318,1.12856762686,-39.8945619169,50.8566918136,21.3841704306,21.1200607728,-0.6185797106,-21.4753882632,-15.4953126215,-1.63150787296,22.0428904382,23.2092207414,19.0673387869,14.3409280303,11.9167963928,5.91274832663,5.87688678067
2019-01-18 18:28:32.400,-0.0918579299934,1.02064249056,-0.246848399262,-5.4542984164,-8.29622895041,7.82640849887,half,A,1,1,0,0,0,0,0,1.05407926887,12.6423675,-0.0400242280873,0.936053950992,-0.1795430169,7.97831929989,-4.09170824201,-3.42391785334,0.956386954941,13.6203423386,0.0490411439138,0.049478306646,0.0610534070006,8.92999099919,3.83195002801,7.17846790351,0.0548726301229,5.82109556563,0.0,0.0340394778599,0.00513847391569,49.8855779946,0.0979278631889,0.386395259721,0.556415206803,0.376046927454,0.141959456259,-0.327026587547,-0.1264353629,-0.0253797791751,0.369559552069,0.435982168815,0.197733046139,0.0916792410492,-0.158560801108,0.0850356010296,0.105427328363,0.0937902030711,0.0322594463238,0.018269101069,0.0340349105683,0.00384717291699,0.0216766541207,0.00978686345587,0.00724451572469,0.0122473153213,0.0082461357234,0.0,-0.344892265053,0.976129054448,478.71704329,42.4736246302,179.273941344,-125.985130584,-42.6164349804,-97.4810124334,-48.2248921666,30.2895840507,-12.5984124514,26.4363613795,-31.7140380034,-18.0313688472,-3.19239913012,12.551662482,39.7368237564,32.6249567077,30.7747110535,-2.00755577679,-15.2291245569,-23.7756213427,-19.7223410736,-12.4630445638,-7.82578039937,-7.85105094017,-3.34920345185,-3.71052135331
2019-01-18 18:28:32.600,-0.0937714412703,1.10649984482,-0.243657610445,1.37240791282,-4.39970545354,-0.117185011181,half,A,1,1,0,0,0,0,0,1.13688346848,4.61027590106,-0.0596647272046,0.961565256625,-0.204482414343,7.48506421129,-4.59118316046,-2.84991668622,0.986141028035,13.4252818684,0.0412096286434,0.0861224240307,0.0483786225797,9.24776583444,3.59964691369,7.30192825305,0.0919981530363,6.14683366982,0.0,-0.0324492827694,0.00813532532365,49.948306544,0.154120096874,0.471858770016,0.709066295333,0.707451376964,0.475882802204,-0.0560569972613,-0.262327911461,-0.533173337384,-0.212609282415,-0.0989886183998,0.102824081789,0.0740224808429,-0.0451793472549,-0.164123774646,-0.161337822084,0.00773209322898,-0.0637114240625,-0.0296902168572,-0.0792290587218,-0.0537258512769,-0.0719496238555,-0.0699138242196,-0.0663721333408,-0.0742449850236,-0.0710002014161,0.0,-0.0503716898938,1.17335131647,477.141348407,47.6029374677,199.447152223,-115.646371211,-40.7556214193,-135.564363179,-91.9677367663,3.54268471287,-18.1901727087,84.3958953633,-20.7646759965,33.8106628584,-49.6229865866,-20.1404983069,-31.1007497685,-14.8384904536,0.0666834924181,20.2589227096,22.904478935,14.1242453342,10.7171650324,5.43313897616,3.27764235516,6.51614868763,4.18867802358,5.07099382514
2019-01-18 18:28:32.800,-0.0986258390211,1.14479054562,-0.238101007804,4.76456519573,0.83871456862,-8.6474457991,half,A,1,1,0,0,0,0,0,1.17344132337,9.90872557297,-0.0774051526456,0.99907574676,-0.223562029401,6.63694792387,-4.4730260751,-2.90843803279,1.02704264482,12.929822851,0.026709753549,0.109967500473,0.0286715246408,9.22044258146,3.79209425314,7.35551890994,0.113124130863,6.3168883218,0.0,-0.0639812703013,0.0150614529192,50.1192585788,0.314903783017,0.631879329162,0.862633527139,0.958381930307,0.711670664837,0.307779874515,-0.166419343969,-0.531933406381,-0.545624446549,-0.507692673857,-0.179894354009,-0.124974460949,0.0933503750411,-0.123636331185,-0.126634741181,-0.229181162087,-0.116752589074,-0.148234561727,-0.105460899961,-0.116047597645,-0.107405946669,-0.100790836965,-0.106382852099,-0.0970554701268,-0.0998714053521,0.0,-0.652993367139,1.02111584457,480.723154851,57.140991356,212.621852706,-84.7732986645,-24.4646538946,-119.314262629,-83.4823811827,-21.7736293357,-3.94265675915,51.9728572854,20.6776839945,34.8397693272,-4.05868171046,-9.84581388876,-29.1693571413,-23.9079783544,-30.6471382896,-18.4665752715,-12.9597658527,3.19316589606,1.80844995336,1.75473051509,0.192280011924,-6.40553150511,-6.83063668814,-8.41154833152
