time,acc_x,acc_y,acc_z,gyr_x,gyr_y,gyr_z,category,participant,set,labelBenchPress,labelDeadlift,labelOHP,labelRow,labelSquat,labelRest
2019-01-11 16:08:05.200,0.013500000000000002,0.9770000000000001,-0.071,-1.8904,2.4392000000000005,0.9388000000000002,heavy,B,30,1,0,0,0,0,0
2019-01-11 16:08:05.400,-0.0015000000000000005,0.9704999999999999,-0.07949999999999999,-1.6825999999999997,-0.8904000000000002,2.1708,heavy,B,30,1,0,0,0,0,0
2019-01-11 16:08:05.600,0.0013333333333333333,0.9716666666666667,-0.06433333333333334,2.5607999999999995,-0.2559999999999999,-1.4146,heavy,B,30,1,0,0,0,0,0
2019-01-11 16:08:05.800,-0.024,0.9570000000000001,-0.0735,8.061,-4.5244,-2.0730000000000004,heavy,B,30,1,0,0,0,0,0
2019-01-11 16:08:06.000,-0.028,0.9576666666666668,-0.11499999999999999,2.439,-1.5486000000000002,-3.6098,heavy,B,30,1,0,0,0,0,0
2019-01-11 16:08:06.200,-0.026000000000000002,0.965,-0.11800000000000002,0.46340000000000037,5.2194,-6.4636,heavy,B,30,1,0,0,0,0,0
2019-01-11 16:08:06.400,-0.048666666666666664,0.79,-0.14533333333333334,21.695,8.1708,-28.219600000000003,heavy,B,30,1,0,0,0,0,0
2019-01-11 16:08:06.600,-0.16999999999999998,0.8995,-0.25,17.5246,1.5975999999999995,-17.5854,heavy,B,30,1,0,0,0,0,0
2019-01-11 16:08:06.800,-0.22266666666666668,0.907,-0.20433333333333334,-7.231800000000002,-1.3536000000000004,-0.40260000000000007,heavy,B,30,1,0,0,0,0,0
2019-01-11 16:08:07.000,-0.20450000000000002,0.9299999999999999,-0.149,-28.683,-10.2076,20.573200000000003,heavy,B,30,1,0,0,0,0,0
2019-01-11 16:08:07.200,-0.205,1.4046666666666667,-0.09500000000000001,-4.109800000000002,-9.3172,-3.3412000000000006,heavy,B,30,1,0,0,0,0,0
2019-01-11 16:08:07.400,-0.16349999999999998,0.996,-0.11299999999999999,35.5488,11.5732,-17.2074,heavy,B,30,1,0,0,0,0,0
2019-01-11 16:08:07.600,-0.22066666666666665,0.9039999999999999,-0.20833333333333334,4.8902,-0.2804000000000001,-0.13400000000000034,heavy,B,30,1,0,0,0,0,0
2019-01-11 16:08:07.800,-0.22199999999999998,0.9464999999999999,-0.221,-1.061,-2.1830000000000003,11.3536,heavy,B,30,1,0,0,0,0,0
2019-01-11 16:08:08.000,-0.18433333333333335,0.9913333333333334,-0.19066666666666668,-28.426800000000004,-13.085400000000002,25.2684,heavy,B,30,1,0,0,0,0,0
2019-01-11 16:08:08.200,-0.07350000000000001,0.762,-0.054000000000000006,-27.524400000000004,-6.3048,22.8052,heavy,B,30,1,0,0,0,0,0
2019-01-11 16:08:08.400,-0.010999999999999998,0.8506666666666666,-0.09433333333333334,12.0852,-0.3535999999999997,-5.4024,heavy,B,30,1,0,0,0,0,0
2019-01-11 16:08:08.600,-0.052500000000000005,1.025,-0.0375,-6.5366,-0.7194,0.3413999999999998,heavy,B,30,1,0,0,0,0,0
2019-01-11 16:08:08.800,-0.065,0.9553333333333333,-0.025333333333333336,1.2684000000000002,-3.0246000000000004,-1.2318000000000002,heavy,B,30,1,0,0,0,0,0
2019-01-11 16:08:09.000,-0.053500000000000006,0.9655,-0.038500000000000006,4.8660000000000005,-2.0486000000000004,2.0610000000000004,heavy,B,30,1,0,0,0,0,0
2019-01-11 16:08:09.200,-0.04066666666666666,0.9900000000000001,-0.034,2.8537999999999997,-2.939,1.8656000000000001,heavy,B,30,1,0,0,0,0,0
2019-01-11 16:08:09.400,-0.0475,0.961,-0.042499999999999996,2.1586000000000003,-1.512,0.3902,heavy,B,30,1,0,0,0,0,0
2019-01-11 16:08:09.600,-0.054,0.9463333333333334,-0.068,2.1586,2.7194000000000003,-3.8658,heavy,B,30,1,0,0,0,0,0
2019-01-11 16:08:09.800,-0.05349999999999999,0.7685,-0.091,26.8048,11.8292,-22.305,heavy,B,30,1,0,0,0,0,0
2019-01-11 16:08:10.000,-0.128,0.8453333333333334,-0.17066666666666666,27.9146,5.0732,-13.012200000000002,heavy,B,30,1,0,0,0,0,0
2019-01-11 16:08:10.200,-0.1915,0.9179999999999999,-0.2545,-1.9026,-4.5244,-0.8412000000000006,heavy,B,30,1,0,0,0,0,0
2019-01-11 16:08:10.400,-0.17966666666666664,0.9666666666666668,-0.17,-31.3658,-3.0611999999999995,20.0366,heavy,B,30,1,0,0,0,0,0
2019-01-11 16:08:10.600,-0.22,1.557,-0.19549999999999998,11.3416,-5.061,-12.499799999999999,heavy,B,30,1,0,0,0,0,0
2019-01-11 16:08:10.800,-0.18200000000000002,0.9276666666666668,-0.17200000000000001,19.926799999999997,0.26820000000000005,-15.756,heavy,B,30,1,0,0,0,0,0
2019-01-11 16:08:11.000,-0.21949999999999997,0.9039999999999999,-0.244,6.939,-2.6586,3.0245999999999995,heavy,B,30,1,0,0,0,0,0
2019-01-11 16:08:11.200,-0.22499999999999998,0.9416666666666668,-0.24633333333333332,-8.6586,-5.1706,7.6586,heavy,B,30,1,0,0,0,0,0
2019-01-11 16:08:11.400,-0.193,0.986,-0.235,-26.0,-10.4634,20.7926,heavy,B,30,1,0,0,0,0,0
2019-01-11 16:08:11.600,-0.10933333333333334,0.8886666666666666,-0.03166666666666667,-41.95119999999999,-4.9878,27.1826,heavy,B,30,1,0,0,0,0,0
2019-01-11 16:08:11.800,-0.010499999999999999,0.618,-0.052500000000000005,15.487799999999998,-6.939,-4.9876000000000005,heavy,B,30,1,0,0,0,0,0
2019-01-11 16:08:12.000,-0.06933333333333334,1.0899999999999999,-0.009333333333333338,2.1832000000000003,0.14640000000000003,1.6463999999999999,heavy,B,30,1,0,0,0,0,0
2019-01-11 16:08:12.200,-0.060000000000000005,0.9235,-0.0235,1.7316000000000003,0.09759999999999991,0.7926000000000001,heavy,B,30,1,0,0,0,0,0
2019-01-11 16:08:12.400,-0.04466666666666667,0.975,-0.024333333333333332,3.3171999999999997,0.41459999999999997,4.5608,heavy,B,30,1,0,0,0,0,0
2019-01-11 16:08:12.600,-0.038,0.9765,-0.0495,1.5854,-1.9148,-0.2072,heavy,B,30,1,0,0,0,0,0
2019-01-11 16:08:12.800,-0.041666666666666664,0.9790000000000001,-0.04800000000000001,2.4025999999999996,-1.5976,-1.1708,heavy,B,30,1,0,0,0,0,0
2019-01-11 16:08:13.000,-0.051000000000000004,0.9675,-0.048,0.29280000000000006,-3.8293999999999997,-0.3416,heavy,B,30,1,0,0,0,0,0
2019-01-11 16:08:13.200,-0.058666666666666666,0.9693333333333333,-0.052333333333333336,2.5976,-3.6708,-0.6951999999999998,heavy,B,30,1,0,0,0,0,0
2019-01-11 16:08:13.400,-0.05500000000000001,0.8719999999999999,-0.07,11.9756,8.5488,-11.561,heavy,B,30,1,0,0,0,0,0
2019-01-11 16:08:13.600,-0.10033333333333334,0.781,-0.13466666666666666,26.780399999999997,14.475399999999999,-33.2684,heavy,B,30,1,0,0,0,0,0
2019-01-11 16:08:13.800,-0.2,0.9005,-0.20450000000000002,21.439,-6.3048,-4.0976,heavy,B,30,1,0,0,0,0,0
2019-01-11 16:08:14.000,-0.247,0.9169999999999999,-0.206,-31.8414,-4.7318,5.9514,heavy,B,30,1,0,0,0,0,0
2019-01-11 16:08:14.200,-0.269,1.2325,-0.1185,-27.170799999999996,-11.7682,11.0122,heavy,B,30,1,0,0,0,0,0
2019-01-11 16:08:14.400,-0.2456666666666667,1.1846666666666668,-0.07733333333333334,32.7318,0.8049999999999999,-10.5852,heavy,B,30,1,0,0,0,0,0
2019-01-11 16:08:14.600,-0.1795,0.8614999999999999,-0.124,20.7562,-5.7806,-2.4024,heavy,B,30,1,0,0,0,0,0
2019-01-11 16:08:14.800,-0.20633333333333334,0.9296666666666668,-0.23233333333333336,3.8415999999999997,-3.7682,-6.256,heavy,B,30,1,0,0,0,0,0
2019-01-11 16:08:15.000,-0.26149999999999995,0.9275,-0.21150000000000002,7.4998000000000005,-1.7075999999999998,2.0607999999999995,heavy,B,30,1,0,0,0,0,0
2019-01-11 16:08:15.200,-0.27,0.957,-0.25566666666666665,-6.2072,-4.878,15.890199999999998,heavy,B,30,1,0,0,0,0,0
2019-01-11 16:08:15.400,-0.1985,0.995,-0.22,-29.304999999999996,-3.1586000000000003,27.0976,heavy,B,30,1,0,0,0,0,0
2019-01-11 16:08:15.600,-0.08800000000000001,0.789,-0.09666666666666668,-37.9024,-1.1343999999999994,20.7562,heavy,B,30,1,0,0,0,0,0
2019-01-11 16:08:15.800,-0.0165,0.8540000000000001,-0.009500000000000001,16.2926,-3.5488,2.1708000000000003,heavy,B,30,1,0,0,0,0,0
2019-01-11 16:08:16.000,-0.03133333333333333,0.9926666666666666,-0.06466666666666666,-1.7071999999999998,1.0731999999999997,-1.0364,heavy,B,30,1,0,0,0,0,0
2019-01-11 16:08:16.200,-0.05,0.9930000000000001,-0.0165,-0.45120000000000005,-2.6586,2.2194000000000003,heavy,B,30,1,0,0,0,0,0
2019-01-11 16:08:16.400,-0.037,0.9833333333333334,-0.015333333333333332,-4.8048,-0.39019999999999994,-1.3782,heavy,B,30,1,0,0,0,0,0
2019-01-11 16:08:16.600,-0.026000000000000002,0.9480000000000001,-0.0010000000000000009,9.0242,-0.9879999999999995,-2.061,heavy,B,30,1,0,0,0,0,0
2019-01-11 16:08:16.800,-0.05566666666666666,0.9916666666666667,-0.04033333333333334,0.7803999999999999,-4.683,3.6098,heavy,B,30,1,0,0,0,0,0
2019-01-11 16:08:17.000,-0.0475,0.955,-0.0455,4.5242,-2.9756,-2.7682,heavy,B,30,1,0,0,0,0,0
2019-01-11 16:08:17.200,-0.056,0.9826666666666668,-0.04633333333333334,-2.0122,0.5,-0.5366000000000001,heavy,B,30,1,0,0,0,0,0
2019-01-11 16:08:17.400,-0.0635,0.9339999999999999,-0.049,7.8658,3.3414,-3.5245999999999995,heavy,B,30,1,0,0,0,0,0
2019-01-11 16:08:17.600,-0.06966666666666667,0.758,-0.09600000000000002,27.170799999999996,8.561,-27.549,heavy,B,30,1,0,0,0,0,0
2019-01-11 16:08:17.800,-0.1585,0.8799999999999999,-0.192,21.5976,1.9756,-15.317000000000002,heavy,B,30,1,0,0,0,0,0
2019-01-11 16:08:18.000,-0.211,0.9313333333333333,-0.21666666666666667,-6.6952,-5.122,11.0974,heavy,B,30,1,0,0,0,0,0
2019-01-11 16:08:18.200,-0.20700000000000002,1.0265,-0.087,-44.4024,-12.3048,7.6218,heavy,B,30,1,0,0,0,0,0
2019-01-11 16:08:18.400,-0.27799999999999997,1.3933333333333333,-0.08533333333333333,26.219399999999997,5.9266,-20.8172,heavy,B,30,1,0,0,0,0,0
2019-01-11 16:08:18.600,-0.225,0.8245,-0.11850000000000001,14.7196,-16.5122,-11.0732,heavy,B,30,1,0,0,0,0,0
2019-01-11 16:08:18.800,-0.2683333333333333,0.8936666666666667,-0.16866666666666666,-3.3048,2.3537999999999997,-6.3416,heavy,B,30,1,0,0,0,0,0
2019-01-11 16:08:19.000,-0.2695,0.9199999999999999,-0.1665,12.317,3.9268,19.8904,heavy,B,30,1,0,0,0,0,0
2019-01-11 16:08:19.200,-0.2563333333333333,0.9653333333333333,-0.18866666666666665,-6.487599999999999,-1.1217999999999997,6.3902,heavy,B,30,1,0,0,0,0,0
2019-01-11 16:08:19.400,-0.191,1.0314999999999999,-0.174,-18.5854,-13.158600000000002,29.024400000000004,heavy,B,30,1,0,0,0,0,0
2019-01-11 16:08:19.600,-0.08866666666666666,0.7876666666666666,-0.09633333333333334,-30.012200000000007,6.073200000000002,22.0246,heavy,B,30,1,0,0,0,0,0
2019-01-11 16:08:19.800,-0.019,0.865,-0.015,20.1832,-2.7318,1.0852,heavy,B,30,1,0,0,0,0,0
2019-01-11 16:08:20.000,-0.06233333333333333,1.0136666666666667,-0.059666666666666666,-4.1095999999999995,-0.10960000000000007,0.5122000000000002,heavy,B,30,1,0,0,0,0,0
2019-01-11 16:08:20.200,-0.054,0.9815,-0.07800000000000001,3.8536,-3.9756,4.634,heavy,B,30,1,0,0,0,0,0
2019-01-11 16:08:20.400,-0.03866666666666667,0.9563333333333333,-0.059000000000000004,-1.3047999999999997,-1.6463999999999999,0.19519999999999998,heavy,B,30,1,0,0,0,0,0
2019-01-11 16:08:20.600,-0.037500000000000006,0.9875,-0.0515,1.8046000000000002,-2.7928,-0.061000000000000124,heavy,B,30,1,0,0,0,0,0
2019-01-11 16:08:20.800,-0.044000000000000004,0.9686666666666666,-0.06266666666666666,3.4143999999999997,-2.9631999999999996,-0.8536000000000001,heavy,B,30,1,0,0,0,0,0
2019-01-11 16:08:21.000,-0.045,0.9815,-0.052500000000000005,-0.12179999999999983,-3.4512,1.866,heavy,B,30,1,0,0,0,0,0
2019-01-11 16:08:21.200,-0.04533333333333334,0.9586666666666668,-0.062,0.20740000000000008,-3.4512,-0.7071999999999999,heavy,B,30,1,0,0,0,0,0
2019-01-11 16:08:21.400,-0.051000000000000004,0.979,-0.060500000000000005,1.5732000000000004,-2.0366,0.31700000000000006,heavy,B,30,1,0,0,0,0,0
2019-01-11 16:08:21.600,-0.05033333333333334,0.976,-0.05666666666666668,0.20760000000000023,-2.8659999999999997,0.9755999999999998,heavy,B,30,1,0,0,0,0,0
2019-01-11 16:08:21.800,-0.034,0.9365,-0.056,5.5122,-2.378,0.3904000000000001,heavy,B,30,1,0,0,0,0,0
2019-01-11 16:08:22.000,-0.05233333333333334,0.9803333333333333,-0.08600000000000001,-1.8781999999999996,-1.6705999999999996,0.15840000000000015,heavy,B,30,1,0,0,0,0,0
2019-01-11 16:10:08.400,0.0036666666666666666,0.9663333333333334,-0.081,1.8412,-4.7806,-2.5607999999999995,heavy,A,1,1,0,0,0,0,0
2019-01-11 16:10:08.600,-0.0125,0.9625,-0.089,2.195,-2.1096000000000004,-2.8538000000000006,heavy,A,1,1,0,0,0,0,0
2019-01-11 16:10:08.800,-0.028,0.867,-0.125,9.5246,-2.8289999999999997,-11.182799999999999,heavy,A,1,1,0,0,0,0,0
2019-01-11 16:10:09.000,-0.062,0.873,-0.15500000000000003,16.5608,-4.4268,-13.0368,heavy,A,1,1,0,0,0,0,0
2019-01-11 16:10:09.200,-0.09666666666666668,0.9043333333333333,-0.169,7.6952,-11.8538,-3.0363999999999995,heavy,A,1,1,0,0,0,0,0
2019-01-11 16:10:09.400,-0.11549999999999999,0.9630000000000001,-0.1765,-1.5486,-13.9268,7.9756,heavy,A,1,1,0,0,0,0,0
2019-01-11 16:10:09.600,-0.10433333333333333,1.11,-0.14033333333333334,-10.3658,-12.9512,12.633999999999999,heavy,A,1,1,0,0,0,0,0
2019-01-11 16:10:09.800,-0.1565,1.323,-0.139,-4.4878,8.3172,-20.4146,heavy,A,1,1,0,0,0,0,0
2019-01-11 16:10:10.000,-0.15200000000000002,0.9333333333333332,-0.13033333333333333,6.1708,9.9268,-8.256,heavy,A,1,1,0,0,0,0,0
2019-01-11 16:10:10.200,-0.158,0.943,-0.1205,1.6098,2.9513999999999996,2.7194000000000003,heavy,A,1,1,0,0,0,0,0
2019-01-11 16:10:10.400,-0.131,0.9506666666666668,-0.14966666666666667,-2.4024,-0.7804,10.5,heavy,A,1,1,0,0,0,0,0
2019-01-11 16:10:10.600,-0.0995,0.9525,-0.1195,-8.9388,-0.28060000000000007,22.1584,heavy,A,1,1,0,0,0,0,0
2019-01-11 16:10:10.800,-0.02733333333333333,0.848,-0.11433333333333333,-9.195,7.0854,22.0854,heavy,A,1,1,0,0,0,0,0
2019-01-11 16:10:11.000,0.018000000000000002,0.925,-0.11699999999999999,9.2436,-7.8782,-3.6339999999999995,heavy,A,1,1,0,0,0,0,0
2019-01-11 16:10:11.200,0.007666666666666668,0.9546666666666667,-0.127,5.2438,-4.122,-5.194999999999999,heavy,A,1,1,0,0,0,0,0
2019-01-11 16:10:11.400,-0.007500000000000001,0.8915,-0.1545,10.5,-3.4024,-11.8416,heavy,A,1,1,0,0,0,0,0
2019-01-11 16:10:11.600,-0.06033333333333333,0.8276666666666667,-0.18666666666666665,17.780399999999997,-5.1462,-14.5244,heavy,A,1,1,0,0,0,0,0
2019-01-11 16:10:11.800,-0.11099999999999999,0.895,-0.215,9.0852,-7.8658,-4.0244,heavy,A,1,1,0,0,0,0,0
2019-01-11 16:10:12.000,-0.11466666666666668,0.9226666666666667,-0.19966666666666666,-9.292800000000002,-19.0854,11.451199999999998,heavy,A,1,1,0,0,0,0,0
2019-01-11 16:10:12.200,-0.1015,1.325,-0.164,-4.9756,-5.9512,3.8902,heavy,A,1,1,0,0,0,0,0
2019-01-11 16:10:12.400,-0.14700000000000002,1.1366666666666667,-0.16,3.2681999999999993,15.182999999999998,-28.756,heavy,A,1,1,0,0,0,0,0
2019-01-11 16:10:12.600,-0.1805,0.902,-0.20350000000000001,9.9876,3.8414,-3.1950000000000007,heavy,A,1,1,0,0,0,0,0
2019-01-11 16:10:12.800,-0.19200000000000003,0.9183333333333333,-0.2333333333333333,-2.5368000000000004,-1.0732,3.7681999999999993,heavy,A,1,1,0,0,0,0,0
2019-01-11 16:10:13.000,-0.16849999999999998,0.9490000000000001,-0.21,-10.5364,-1.1219999999999999,12.1098,heavy,A,1,1,0,0,0,0,0
2019-01-11 16:10:13.200,-0.11433333333333334,0.9716666666666667,-0.154,-26.280399999999997,9.183,27.683,heavy,A,1,1,0,0,0,0,0
2019-01-11 16:10:13.400,-0.013000000000000001,0.7954999999999999,-0.109,-6.5486,3.0367999999999995,15.938999999999998,heavy,A,1,1,0,0,0,0,0
2019-01-11 16:10:13.600,0.006000000000000001,0.9279999999999999,-0.08433333333333333,10.4026,-9.317,-4.061,heavy,A,1,1,0,0,0,0,0
2019-01-11 16:10:13.800,-0.0185,0.9615,-0.0915,4.8172,-3.7683999999999997,-1.6829999999999998,heavy,A,1,1,0,0,0,0,0
2019-01-11 16:10:14.000,-0.02466666666666667,0.9603333333333334,-0.114,4.890000000000001,-2.622,-2.8777999999999997,heavy,A,1,1,0,0,0,0,0
2019-01-11 16:10:14.200,-0.040999999999999995,0.84,-0.1525,12.073,-7.1952,-12.1098,heavy,A,1,1,0,0,0,0,0
2019-01-11 16:10:14.400,-0.09066666666666667,0.8456666666666667,-0.207,13.182999999999998,-6.7928,-19.0854,heavy,A,1,1,0,0,0,0,0
2019-01-11 16:10:14.600,-0.1355,0.8714999999999999,-0.2155,7.0122,-7.5120000000000005,-2.0488,heavy,A,1,1,0,0,0,0,0
2019-01-11 16:10:14.800,-0.13833333333333334,0.9396666666666667,-0.157,-3.4878,-15.4268,17.1342,heavy,A,1,1,0,0,0,0,0
2019-01-11 16:10:15.000,-0.16649999999999998,1.423,-0.14500000000000002,-12.7924,0.2562000000000001,-8.0,heavy,A,1,1,0,0,0,0,0
2019-01-11 16:10:15.200,-0.17666666666666667,1.0553333333333332,-0.14033333333333334,4.9878,10.4756,-16.8416,heavy,A,1,1,0,0,0,0,0
2019-01-11 16:10:15.400,-0.1885,0.886,-0.196,7.5608,3.939,-0.06120000000000001,heavy,A,1,1,0,0,0,0,0
2019-01-11 16:10:15.600,-0.18600000000000003,0.9233333333333333,-0.20233333333333334,1.4146000000000003,1.9634,6.9266000000000005,heavy,A,1,1,0,0,0,0,0
2019-01-11 16:10:15.800,-0.16299999999999998,0.9570000000000001,-0.214,-4.2318,-1.6096,11.4756,heavy,A,1,1,0,0,0,0,0
2019-01-11 16:10:16.000,-0.109,0.9666666666666667,-0.15666666666666668,-14.243799999999998,-1.8780000000000001,20.853599999999997,heavy,A,1,1,0,0,0,0,0
2019-01-11 16:10:16.200,-0.018500000000000003,0.965,-0.10350000000000001,-23.6952,22.5854,24.061,heavy,A,1,1,0,0,0,0,0
2019-01-11 16:10:16.400,0.017333333333333336,0.8053333333333333,-0.12266666666666669,2.1465999999999994,-7.3658,2.3902,heavy,A,1,1,0,0,0,0,0
2019-01-11 16:10:16.600,0.014499999999999999,1.018,-0.053500000000000006,7.3172,-10.4634,-2.683,heavy,A,1,1,0,0,0,0,0
2019-01-11 16:10:16.800,0.017,0.9703333333333334,-0.05666666666666667,4.5245999999999995,-4.7316,-0.048799999999999996,heavy,A,1,1,0,0,0,0,0
2019-01-11 16:10:17.000,0.015500000000000002,0.963,-0.092,5.6096,-1.7074000000000003,-2.6340000000000003,heavy,A,1,1,0,0,0,0,0
2019-01-11 16:10:17.200,-0.012333333333333333,0.9566666666666667,-0.11666666666666665,3.2560000000000002,-2.6342,-0.2072,heavy,A,1,1,0,0,0,0,0
2019-01-11 16:10:17.400,-0.0225,0.9075,-0.14150000000000001,7.097800000000001,-3.622,-9.0244,heavy,A,1,1,0,0,0,0,0
2019-01-11 16:10:17.600,-0.052666666666666674,0.8326666666666668,-0.17666666666666667,14.3412,-9.0488,-22.3782,heavy,A,1,1,0,0,0,0,0
2019-01-11 16:10:17.800,-0.11,0.8685,-0.20750000000000002,16.7194,-4.5367999999999995,-10.524399999999998,heavy,A,1,1,0,0,0,0,0
2019-01-11 16:10:18.000,-0.13466666666666668,0.895,-0.19933333333333336,-4.878,-10.866,14.707400000000002,heavy,A,1,1,0,0,0,0,0
2019-01-11 16:10:18.200,-0.122,1.1145,-0.191,-14.3048,-16.817,10.5732,heavy,A,1,1,0,0,0,0,0
2019-01-11 16:10:18.400,-0.16566666666666666,1.2956666666666667,-0.11433333333333333,4.622,11.7682,-20.866,heavy,A,1,1,0,0,0,0,0
2019-01-11 16:10:18.600,-0.172,0.878,-0.1725,-6.4268,8.0124,-15.183000000000002,heavy,A,1,1,0,0,0,0,0
2019-01-11 16:10:18.800,-0.19400000000000003,0.9103333333333333,-0.17833333333333334,-2.4512,6.7562,-2.402400000000001,heavy,A,1,1,0,0,0,0,0
2019-01-11 16:10:19.000,-0.1775,0.9279999999999999,-0.1535,5.122,-3.5366,8.0,heavy,A,1,1,0,0,0,0,0
2019-01-11 16:10:19.200,-0.19000000000000003,0.955,-0.141,-2.244,1.8416000000000003,2.8414,heavy,A,1,1,0,0,0,0,0
2019-01-11 16:10:19.400,-0.17099999999999999,0.9770000000000001,-0.147,-2.3778000000000006,-6.6096,15.8416,heavy,A,1,1,0,0,0,0,0
2019-01-11 16:10:19.600,-0.11466666666666668,0.9883333333333333,-0.11599999999999999,-23.694999999999997,8.4636,27.9026,heavy,A,1,1,0,0,0,0,0
2019-01-11 16:10:19.800,-0.0115,0.8105,-0.0905,-0.5122,8.5,18.060999999999996,heavy,A,1,1,0,0,0,0,0
2019-01-11 16:10:20.000,0.017666666666666667,0.9476666666666667,-0.07833333333333332,10.5366,-10.7194,-3.561,heavy,A,1,1,0,0,0,0,0
2019-01-11 16:10:20.200,0.002,0.933,-0.1125,3.0002000000000004,-3.9878,-0.35379999999999995,heavy,A,1,1,0,0,0,0,0
2019-01-11 16:10:20.400,-0.004,0.9743333333333334,-0.09799999999999999,3.0002,-4.3294,-2.6218,heavy,A,1,1,0,0,0,0,0
2019-01-11 16:10:20.600,-0.01,0.9635,-0.1035,2.378,-3.5852000000000004,-2.5732000000000004,heavy,A,1,1,0,0,0,0,0
2019-01-11 16:10:20.800,-0.02466666666666667,0.8809999999999999,-0.1426666666666667,13.219400000000002,-6.561,-12.7438,heavy,A,1,1,0,0,0,0,0
2019-01-11 16:10:21.000,-0.0785,0.847,-0.1905,15.365800000000002,-5.6952,-18.475599999999996,heavy,A,1,1,0,0,0,0,0
2019-01-11 16:10:21.200,-0.124,0.8733333333333334,-0.22899999999999998,16.1338,-11.4512,-8.378,heavy,A,1,1,0,0,0,0,0
2019-01-11 16:10:21.400,-0.17149999999999999,0.9079999999999999,-0.22,-11.0244,-17.1096,1.0732000000000004,heavy,A,1,1,0,0,0,0,0
2019-01-11 16:10:21.600,-0.17400000000000002,1.0926666666666667,-0.15333333333333332,-4.9636,-16.4026,21.9026,heavy,A,1,1,0,0,0,0,0
2019-01-11 16:10:21.800,-0.2195,1.4025,-0.10899999999999999,-7.5244,18.6706,-22.6828,heavy,A,1,1,0,0,0,0,0
2019-01-11 16:10:22.000,-0.19200000000000003,0.8716666666666667,-0.15566666666666665,2.6097999999999995,8.707,-14.865800000000002,heavy,A,1,1,0,0,0,0,0
2019-01-11 16:10:22.200,-0.22699999999999998,0.891,-0.16999999999999998,5.3902,4.0,-0.3780000000000002,heavy,A,1,1,0,0,0,0,0
2019-01-11 16:10:22.400,-0.21999999999999997,0.9249999999999999,-0.20566666666666666,4.755999999999999,-0.04860000000000007,9.1828,heavy,A,1,1,0,0,0,0,0
2019-01-11 16:10:22.600,-0.186,0.9445000000000001,-0.2175,-0.24359999999999998,-6.4512,13.1952,heavy,A,1,1,0,0,0,0,0
2019-01-11 16:10:22.800,-0.14466666666666664,0.9510000000000001,-0.17433333333333334,-8.7196,-3.2194000000000003,17.1098,heavy,A,1,1,0,0,0,0,0
2019-01-11 16:10:23.000,-0.08000000000000002,0.952,-0.14700000000000002,-12.305,3.9513999999999996,20.719600000000003,heavy,A,1,1,0,0,0,0,0
2019-01-11 16:10:23.200,-0.035,0.9223333333333333,-0.10566666666666667,-11.4512,4.8904,22.561,heavy,A,1,1,0,0,0,0,0
2019-01-11 16:10:23.400,0.026000000000000002,0.8634999999999999,-0.10200000000000001,10.1586,-1.7195999999999998,3.3293999999999997,heavy,A,1,1,0,0,0,0,0
2019-01-11 16:10:23.600,0.05466666666666667,0.975,-0.11699999999999999,1.3778000000000001,-0.19499999999999998,1.2196,heavy,A,1,1,0,0,0,0,0
2019-01-11 16:10:23.800,0.055,0.978,-0.11900000000000001,-1.7439999999999998,-1.4514,-1.9148000000000003,heavy,A,1,1,0,0,0,0,0
2019-01-11 16:10:24.000,0.03866666666666666,0.9676666666666667,-0.10000000000000002,-0.21939999999999998,-4.9756,-3.8658,heavy,A,1,1,0,0,0,0,0
2019-01-11 16:10:24.200,0.018500000000000003,0.9725,-0.08299999999999999,0.7924,-1.8536000000000001,0.6219999999999999,heavy,A,1,1,0,0,0,0,0
2019-01-11 16:10:24.400,0.01966666666666667,0.9703333333333332,-0.07966666666666666,-1.927,0.5851999999999998,-2.0246,heavy,A,1,1,0,0,0,0,0
2019-01-11 16:10:24.600,0.009500000000000001,0.9575,-0.088,4.1462,-2.5607999999999995,3.5974000000000004,heavy,A,1,1,0,0,0,0,0
2019-01-11 16:10:24.800,0.021,0.966,-0.10800000000000001,2.743499999999999,0.5485,-2.8354999999999997,heavy,A,1,1,0,0,0,0,0
2019-01-11 16:12:05.200,0.0325,0.98,0.0235,8.378000000000002,-1.5245999999999993,1.2196000000000002,heavy,B,31,1,0,0,0,0,0
2019-01-11 16:12:05.400,0.002,0.8535,-0.028499999999999998,12.7928,1.8904,-17.7562,heavy,B,31,1,0,0,0,0,0
2019-01-11 16:12:05.600,-0.06766666666666667,0.7949999999999999,-0.09233333333333334,28.365999999999996,4.0488,-34.5244,heavy,B,31,1,0,0,0,0,0
2019-01-11 16:12:05.800,-0.21200000000000002,0.9009999999999999,-0.1675,-2.2559999999999993,2.7074,-29.914599999999997,heavy,B,31,1,0,0,0,0,0
2019-01-11 16:12:06.000,-0.24566666666666667,0.9076666666666667,-0.11333333333333334,-10.1708,-13.878,19.5368,heavy,B,31,1,0,0,0,0,0
2019-01-11 16:12:06.200,-0.241,1.1655,-0.008,-24.109599999999997,-18.780399999999997,23.512,heavy,B,31,1,0,0,0,0,0
2019-01-11 16:12:06.400,-0.216,1.3006666666666666,0.010333333333333338,26.183,10.8414,-22.9146,heavy,B,31,1,0,0,0,0,0
2019-01-11 16:12:06.600,-0.2315,0.894,-0.0775,3.4146,1.7072000000000003,-18.719600000000003,heavy,B,31,1,0,0,0,0,0
2019-01-11 16:12:06.800,-0.26699999999999996,0.9233333333333332,-0.11833333333333333,9.0366,-6.5,4.170799999999999,heavy,B,31,1,0,0,0,0,0
2019-01-11 16:12:07.000,-0.252,0.9325,-0.0955,0.6341999999999999,-1.8169999999999995,13.390200000000002,heavy,B,31,1,0,0,0,0,0
2019-01-11 16:12:07.200,-0.23466666666666666,1.004,-0.08666666666666667,-21.2926,-8.4024,25.6098,heavy,B,31,1,0,0,0,0,0
2019-01-11 16:12:07.400,-0.1155,0.8815,0.022,-30.2562,-4.1218,34.8658,heavy,B,31,1,0,0,0,0,0
2019-01-11 16:12:07.600,-0.005,0.7746666666666666,-0.014666666666666675,9.2196,-3.0366,-9.0366,heavy,B,31,1,0,0,0,0,0
2019-01-11 16:12:07.800,-0.066,1.048,0.0245,6.6586,1.7194000000000003,0.5854000000000001,heavy,B,31,1,0,0,0,0,0
2019-01-11 16:12:08.000,-0.09133333333333332,0.6786666666666666,-0.035333333333333335,28.182799999999997,18.7316,-42.5366,heavy,B,31,1,0,0,0,0,0
2019-01-11 16:12:08.200,-0.1665,0.928,-0.156,19.4026,-2.0854,-17.4754,heavy,B,31,1,0,0,0,0,0
2019-01-11 16:12:08.400,-0.2703333333333333,0.9369999999999999,-0.09699999999999999,-19.3414,-6.1218,11.2684,heavy,B,31,1,0,0,0,0,0
2019-01-11 16:12:08.600,-0.32299999999999995,1.216,0.025500000000000002,-26.2682,-11.7928,9.4636,heavy,B,31,1,0,0,0,0,0
2019-01-11 16:12:08.800,-0.28133333333333327,1.2593333333333334,-0.01333333333333333,44.744,13.4512,-10.6828,heavy,B,31,1,0,0,0,0,0
2019-01-11 16:12:09.000,-0.23099999999999998,0.8665,-0.12200000000000001,10.463400000000002,-7.3904,-4.756399999999999,heavy,B,31,1,0,0,0,0,0
2019-01-11 16:12:09.200,-0.245,0.9423333333333334,-0.19233333333333333,-8.8294,3.9878,2.7196000000000002,heavy,B,31,1,0,0,0,0,0
2019-01-11 16:12:09.400,-0.2255,0.9325,-0.115,-3.987800000000001,-6.1708,20.6586,heavy,B,31,1,0,0,0,0,0
2019-01-11 16:12:09.600,-0.15933333333333333,1.0236666666666665,-0.08766666666666667,-33.6218,-10.4876,33.0854,heavy,B,31,1,0,0,0,0,0
2019-01-11 16:12:09.800,-0.0655,0.671,0.013499999999999998,-11.378199999999996,-6.4024,17.6462,heavy,B,31,1,0,0,0,0,0
2019-01-11 16:12:10.000,-0.011333333333333334,0.9803333333333333,0.02333333333333334,6.1096,0.036600000000000056,-2.0976,heavy,B,31,1,0,0,0,0,0
2019-01-11 16:12:10.200,-0.021,0.7265,-0.026500000000000003,22.1098,12.7804,-25.9514,heavy,B,31,1,0,0,0,0,0
2019-01-11 16:12:10.400,-0.11499999999999999,0.7046666666666668,-0.09566666666666668,25.4998,3.0854,-38.9146,heavy,B,31,1,0,0,0,0,0
2019-01-11 16:12:10.600,-0.274,1.0025,-0.1305,-9.4756,-11.1706,15.3416,heavy,B,31,1,0,0,0,0,0
2019-01-11 16:12:10.800,-0.24533333333333332,1.2293333333333332,0.0043333333333333375,-37.122,-15.0,12.1952,heavy,B,31,1,0,0,0,0,0
2019-01-11 16:12:11.000,-0.2615,1.3900000000000001,0.07400000000000001,28.5,8.8902,-16.682799999999997,heavy,B,31,1,0,0,0,0,0
2019-01-11 16:12:11.200,-0.19733333333333333,0.823,-0.04866666666666667,10.9024,1.8414000000000001,-10.0608,heavy,B,31,1,0,0,0,0,0
2019-01-11 16:12:11.400,-0.24,0.9225,-0.10500000000000001,9.1098,-3.9879999999999995,2.7072,heavy,B,31,1,0,0,0,0,0
2019-01-11 16:12:11.600,-0.25466666666666665,0.963,-0.11266666666666668,-2.817,0.8416000000000003,0.5610000000000002,heavy,B,31,1,0,0,0,0,0
2019-01-11 16:12:11.800,-0.2645,0.9715,-0.104,-5.4878,-6.0974,5.634,heavy,B,31,1,0,0,0,0,0
2019-01-11 16:12:12.000,-0.218,0.9776666666666666,-0.06633333333333334,-15.719600000000003,-10.4758,36.9878,heavy,B,31,1,0,0,0,0,0
2019-01-11 16:12:12.200,-0.104,0.8619999999999999,0.05349999999999999,-15.268400000000003,-2.451200000000001,25.914599999999997,heavy,B,31,1,0,0,0,0,0
2019-01-11 16:12:12.400,-0.0030000000000000027,0.8396666666666667,-0.032999999999999995,6.4146,2.4998000000000005,-13.6344,heavy,B,31,1,0,0,0,0,0
2019-01-11 16:12:12.600,-0.0625,0.8459999999999999,-0.015000000000000001,23.256199999999996,8.9148,-19.1708,heavy,B,31,1,0,0,0,0,0
2019-01-11 16:12:12.800,-0.12566666666666668,0.703,-0.126,29.5856,2.0244,-35.36579999999999,heavy,B,31,1,0,0,0,0,0
2019-01-11 16:12:13.000,-0.2785,0.9924999999999999,-0.15100000000000002,-14.9756,-12.317,13.634199999999998,heavy,B,31,1,0,0,0,0,0
2019-01-11 16:12:13.200,-0.2763333333333333,1.187,-0.03866666666666667,-32.317,-8.7928,16.0244,heavy,B,31,1,0,0,0,0,0
2019-01-11 16:12:13.400,-0.2885,1.395,0.0395,25.6462,8.9268,-16.8416,heavy,B,31,1,0,0,0,0,0
2019-01-11 16:12:13.600,-0.206,0.8300000000000001,-0.08600000000000001,17.2436,-8.1708,-5.939,heavy,B,31,1,0,0,0,0,0
2019-01-11 16:12:13.800,-0.2595,0.905,-0.11449999999999999,0.3779999999999998,5.9268,-3.061,heavy,B,31,1,0,0,0,0,0
2019-01-11 16:12:14.000,-0.26333333333333325,0.9513333333333334,-0.13066666666666668,-5.926799999999999,4.6952,5.0120000000000005,heavy,B,31,1,0,0,0,0,0
2019-01-11 16:12:14.200,-0.22,0.9664999999999999,-0.1325,4.4756,-16.378,23.975600000000004,heavy,B,31,1,0,0,0,0,0
2019-01-11 16:12:14.400,-0.164,1.0456666666666667,-0.09266666666666667,-28.183,2.8293999999999997,33.3658,heavy,B,31,1,0,0,0,0,0
2019-01-11 16:12:14.600,-0.0005000000000000004,0.849,-0.006500000000000001,-16.378,-2.7561999999999998,29.122000000000003,heavy,B,31,1,0,0,0,0,0
2019-01-11 16:12:14.800,0.041666666666666664,0.7803333333333334,-0.019,8.622,-4.146000000000001,-11.1708,heavy,B,31,1,0,0,0,0,0
2019-01-11 16:12:15.000,-0.029,1.1005,0.059,-3.9509999999999996,2.4514000000000005,0.7805999999999996,heavy,B,31,1,0,0,0,0,0
2019-01-11 16:12:15.200,-0.020000000000000004,0.9423333333333334,0.03866666666666666,5.6708,-2.9025999999999996,-1.6344,heavy,B,31,1,0,0,0,0,0
2019-01-11 16:12:15.400,-0.007000000000000001,0.992,0.022,1.5608,-4.0486,0.25600000000000006,heavy,B,31,1,0,0,0,0,0
2019-01-11 16:12:15.600,-0.012333333333333335,0.9596666666666668,0.0009999999999999985,-1.4266,-3.1828,-0.5976,heavy,B,31,1,0,0,0,0,0
2019-01-11 16:12:15.800,-0.0375,0.966,0.0145,-0.378,-2.3045999999999998,-0.25599999999999995,heavy,B,31,1,0,0,0,0,0
2019-01-11 16:12:16.000,-0.03666666666666666,0.9286666666666666,0.020666666666666667,8.1586,1.3538000000000001,-7.0366,heavy,B,31,1,0,0,0,0,0
2019-01-11 16:12:16.200,-0.061000000000000006,0.6895,-0.053,23.268399999999996,9.6342,-35.4636,heavy,B,31,1,0,0,0,0,0
2019-01-11 16:12:16.400,-0.166,0.8926666666666666,-0.103,11.7928,-2.3412000000000006,-19.0488,heavy,B,31,1,0,0,0,0,0
2019-01-11 16:12:16.600,-0.23199999999999998,0.9204999999999999,-0.057499999999999996,-17.5122,-5.061,19.8902,heavy,B,31,1,0,0,0,0,0
2019-01-11 16:12:16.800,-0.30133333333333334,1.3916666666666666,0.06466666666666666,-31.170599999999997,-9.9878,-5.1706,heavy,B,31,1,0,0,0,0,0
2019-01-11 16:12:17.000,-0.254,1.0615,0.067,42.9144,-8.109800000000002,-13.11,heavy,B,31,1,0,0,0,0,0
2019-01-11 16:12:17.200,-0.21066666666666667,0.8343333333333334,-0.078,15.3536,-3.231599999999999,-6.8292,heavy,B,31,1,0,0,0,0,0
2019-01-11 16:12:17.400,-0.26149999999999995,0.887,-0.099,9.439,0.6586000000000005,8.3048,heavy,B,31,1,0,0,0,0,0
2019-01-11 16:12:17.600,-0.26233333333333336,0.9486666666666667,-0.165,-2.8536,5.1708,-2.0242000000000004,heavy,B,31,1,0,0,0,0,0
2019-01-11 16:12:17.800,-0.2455,0.9610000000000001,-0.122,-2.9512,3.2802000000000007,4.1586,heavy,B,31,1,0,0,0,0,0
2019-01-11 16:12:18.000,-0.227,0.9883333333333333,-0.13033333333333333,-9.6464,1.7926000000000002,12.1586,heavy,B,31,1,0,0,0,0,0
2019-01-11 16:12:18.200,-0.183,1.0180000000000002,-0.1295,-21.8902,-10.5366,27.2928,heavy,B,31,1,0,0,0,0,0
2019-01-11 16:12:18.400,-0.08900000000000001,0.8450000000000001,-0.004000000000000001,-22.183,-7.182600000000001,29.305200000000003,heavy,B,31,1,0,0,0,0,0
2019-01-11 16:12:18.600,0.0,0.7665,0.02,5.6586,0.30479999999999985,-8.7684,heavy,B,31,1,0,0,0,0,0
2019-01-11 16:12:18.800,-0.039,1.0456666666666667,0.06766666666666667,6.9024,-1.8048000000000002,5.5732,heavy,B,31,1,0,0,0,0,0
2019-01-11 16:12:19.000,-0.030000000000000002,0.9755,0.031,10.4026,-2.9392,2.1096,heavy,B,31,1,0,0,0,0,0
2019-01-11 16:12:19.200,-0.017666666666666667,0.9733333333333333,-0.006000000000000001,6.0366,-3.1706,7.6218,heavy,B,31,1,0,0,0,0,0
2019-01-11 16:12:19.400,-0.004,0.985,-0.053,5.4879999999999995,-0.4066666666666667,0.42666666666666675,heavy,B,31,1,0,0,0,0,0
2019-01-11 16:14:45.600,-0.005,0.9685,-0.097,2.0732,-2.2074000000000003,-0.9756,heavy,A,3,1,0,0,0,0,0
2019-01-11 16:14:45.800,-0.009,0.9259999999999999,-0.10200000000000001,10.2804,-1.4632000000000003,-11.6586,heavy,A,3,1,0,0,0,0,0
2019-01-11 16:14:46.000,-0.03966666666666666,0.8246666666666665,-0.17333333333333334,22.8902,-9.1952,-18.9024,heavy,A,3,1,0,0,0,0,0
2019-01-11 16:14:46.200,-0.104,0.893,-0.21700000000000003,15.4512,-10.2438,-5.0854,heavy,A,3,1,0,0,0,0,0
2019-01-11 16:14:46.400,-0.14233333333333334,0.9203333333333332,-0.231,-4.7438,-14.524599999999998,8.3052,heavy,A,3,1,0,0,0,0,0
2019-01-11 16:14:46.600,-0.129,0.9510000000000001,-0.2,-10.9024,-19.6586,14.378199999999998,heavy,A,3,1,0,0,0,0,0
2019-01-11 16:14:46.800,-0.15633333333333332,1.3323333333333334,-0.14300000000000002,-3.7683999999999997,12.878200000000001,-17.8902,heavy,A,3,1,0,0,0,0,0
2019-01-11 16:14:47.000,-0.176,0.9445,-0.131,-2.1338,9.2318,-17.7196,heavy,A,3,1,0,0,0,0,0
2019-01-11 16:14:47.200,-0.19333333333333336,0.9359999999999999,-0.18533333333333335,10.3536,3.122,4.097599999999999,heavy,A,3,1,0,0,0,0,0
2019-01-11 16:14:47.400,-0.182,0.9304999999999999,-0.173,-2.5731999999999995,0.3412,9.317,heavy,A,3,1,0,0,0,0,0
2019-01-11 16:14:47.600,-0.14733333333333334,0.9476666666666668,-0.18233333333333335,-16.4998,1.8294000000000001,20.7316,heavy,A,3,1,0,0,0,0,0
2019-01-11 16:14:47.800,-0.08299999999999999,0.9635,-0.1205,-18.9758,12.8292,23.548599999999997,heavy,A,3,1,0,0,0,0,0
2019-01-11 16:14:48.000,-0.021666666666666667,0.7766666666666667,-0.11499999999999999,11.7682,-15.500200000000001,0.34140000000000004,heavy,A,3,1,0,0,0,0,0
2019-01-11 16:14:48.200,-0.0335,1.0125,-0.1175,4.6952,-4.1708,-1.0366,heavy,A,3,1,0,0,0,0,0
2019-01-11 16:14:48.400,-0.017333333333333333,0.9663333333333334,-0.12166666666666666,3.4998000000000005,-1.0122,-4.207400000000001,heavy,A,3,1,0,0,0,0,0
2019-01-11 16:14:48.600,-0.019500000000000003,0.7989999999999999,-0.182,15.0124,-9.1952,-18.536399999999997,heavy,A,3,1,0,0,0,0,0
2019-01-11 16:14:48.800,-0.09066666666666667,0.8453333333333332,-0.20166666666666666,17.1952,-4.7196,-14.0244,heavy,A,3,1,0,0,0,0,0
2019-01-11 16:14:49.000,-0.14750000000000002,0.8745,-0.183,-1.1341999999999999,-12.5974,5.9879999999999995,heavy,A,3,1,0,0,0,0,0
2019-01-11 16:14:49.200,-0.14866666666666664,1.027,-0.17266666666666666,-17.4756,-13.963400000000002,12.2804,heavy,A,3,1,0,0,0,0,0
2019-01-11 16:14:49.400,-0.20399999999999996,1.524,-0.1275,4.195,13.707400000000002,-19.378,heavy,A,3,1,0,0,0,0,0
2019-01-11 16:14:49.600,-0.18566666666666665,0.9206666666666666,-0.14266666666666666,5.1462,8.9024,-9.061,heavy,A,3,1,0,0,0,0,0
2019-01-11 16:14:49.800,-0.201,0.9055,-0.17450000000000002,2.0244,3.2682,0.6095999999999997,heavy,A,3,1,0,0,0,0,0
2019-01-11 16:14:50.000,-0.18000000000000002,0.9359999999999999,-0.20400000000000004,1.2806000000000002,-9.5852,10.2684,heavy,A,3,1,0,0,0,0,0
2019-01-11 16:14:50.200,-0.155,0.9675,-0.194,-13.243799999999998,0.048799999999999955,22.8538,heavy,A,3,1,0,0,0,0,0
2019-01-11 16:14:50.400,-0.09366666666666666,0.91,-0.13833333333333334,-11.060799999999999,0.1100000000000005,27.255999999999993,heavy,A,3,1,0,0,0,0,0
2019-01-11 16:14:50.600,-0.014,0.7495,-0.146,7.4514,0.2684000000000003,-0.8174000000000003,heavy,A,3,1,0,0,0,0,0
2019-01-11 16:14:50.800,-0.017666666666666667,0.9783333333333334,-0.15400000000000003,3.4268,-1.3784000000000003,-4.5488,heavy,A,3,1,0,0,0,0,0
2019-01-11 16:14:51.000,-0.022,0.8035,-0.172,15.6952,-4.7928,-20.3904,heavy,A,3,1,0,0,0,0,0
2019-01-11 16:14:51.200,-0.08466666666666667,0.8370000000000001,-0.20766666666666667,19.2804,-4.4146,-11.0122,heavy,A,3,1,0,0,0,0,0
2019-01-11 16:14:51.400,-0.135,0.893,-0.20800000000000002,1.3414000000000008,-12.0122,9.7072,heavy,A,3,1,0,0,0,0,0
2019-01-11 16:14:51.600,-0.11566666666666665,1.032,-0.208,-16.1952,-13.926999999999998,15.926799999999997,heavy,A,3,1,0,0,0,0,0
2019-01-11 16:14:51.800,-0.14650000000000002,1.52,-0.15300000000000002,-6.9634,18.2804,-28.402599999999996,heavy,A,3,1,0,0,0,0,0
2019-01-11 16:14:52.000,-0.164,0.9106666666666666,-0.15066666666666667,-0.3293999999999999,13.756,-17.6218,heavy,A,3,1,0,0,0,0,0
2019-01-11 16:14:52.200,-0.195,0.9059999999999999,-0.196,9.549,-0.13419999999999996,2.8536,heavy,A,3,1,0,0,0,0,0
2019-01-11 16:14:52.400,-0.20000000000000004,0.932,-0.19166666666666665,0.3171999999999998,-5.0364,8.0002,heavy,A,3,1,0,0,0,0,0
2019-01-11 16:14:52.600,-0.183,0.9625,-0.20450000000000002,-6.9512,-9.4756,21.2806,heavy,A,3,1,0,0,0,0,0
2019-01-11 16:14:52.800,-0.12300000000000001,0.96,-0.155,-26.7438,-0.9511999999999997,28.9024,heavy,A,3,1,0,0,0,0,0
2019-01-11 16:14:53.000,-0.039,0.7835000000000001,-0.07949999999999999,4.2193999999999985,-0.6340000000000003,4.634,heavy,A,3,1,0,0,0,0,0
2019-01-11 16:14:53.200,-0.019333333333333334,0.9550000000000001,-0.10166666666666667,6.1586,-3.085400000000001,-0.7803999999999995,heavy,A,3,1,0,0,0,0,0
2019-01-11 16:14:53.400,-0.0065,0.7815,-0.1445,20.805,-6.1218,-21.0486,heavy,A,3,1,0,0,0,0,0
2019-01-11 16:14:53.600,-0.07433333333333332,0.8490000000000001,-0.20833333333333334,18.573200000000003,-4.0,-15.524400000000004,heavy,A,3,1,0,0,0,0,0
2019-01-11 16:14:53.800,-0.127,0.8719999999999999,-0.21650000000000003,8.2196,-11.244,3.1096000000000004,heavy,A,3,1,0,0,0,0,0
2019-01-11 16:14:54.000,-0.15566666666666668,0.953,-0.20266666666666666,-11.2562,-19.9758,13.341399999999998,heavy,A,3,1,0,0,0,0,0
2019-01-11 16:14:54.200,-0.1985,1.477,-0.1805,-7.0976,9.5366,-14.3292,heavy,A,3,1,0,0,0,0,0
2019-01-11 16:14:54.400,-0.18533333333333335,1.0036666666666667,-0.15366666666666667,-0.7316000000000003,11.2196,-20.0976,heavy,A,3,1,0,0,0,0,0
2019-01-11 16:14:54.600,-0.2175,0.873,-0.1855,3.9387999999999996,7.2682,-2.3293999999999997,heavy,A,3,1,0,0,0,0,0
2019-01-11 16:14:54.800,-0.21166666666666667,0.9,-0.207,1.5608,2.0,2.7318000000000007,heavy,A,3,1,0,0,0,0,0
2019-01-11 16:14:55.000,-0.2015,0.9329999999999999,-0.217,-0.43899999999999995,2.9512,6.9510000000000005,heavy,A,3,1,0,0,0,0,0
2019-01-11 16:14:55.200,-0.18233333333333335,0.9476666666666667,-0.21799999999999997,-2.7439999999999998,-8.7192,14.9756,heavy,A,3,1,0,0,0,0,0
2019-01-11 16:14:55.400,-0.1575,0.9830000000000001,-0.181,-18.4392,1.2561999999999998,16.317,heavy,A,3,1,0,0,0,0,0
2019-01-11 16:14:55.600,-0.09000000000000001,0.947,-0.09766666666666667,-15.4756,2.2681999999999998,24.1342,heavy,A,3,1,0,0,0,0,0
2019-01-11 16:14:55.800,-0.023,0.9055,-0.0205,-4.8416,11.865600000000004,9.1098,heavy,A,3,1,0,0,0,0,0
2019-01-11 16:14:56.000,0.013,0.9133333333333332,-0.114,12.293,-12.622,-3.8293999999999997,heavy,A,3,1,0,0,0,0,0
2019-01-11 16:14:56.200,-0.01,0.9625,-0.08549999999999999,4.8294,-3.8413999999999993,-1.1096,heavy,A,3,1,0,0,0,0,0
2019-01-11 16:14:56.400,-0.016,0.9693333333333333,-0.10733333333333334,2.8414,-4.573,-2.7196,heavy,A,3,1,0,0,0,0,0
2019-01-11 16:14:56.600,-0.023,0.9725,-0.0985,3.8294000000000006,-4.6222,-2.5118,heavy,A,3,1,0,0,0,0,0
2019-01-11 16:14:56.800,-0.037,0.8690000000000001,-0.1376666666666667,14.5732,-6.8782,-16.5976,heavy,A,3,1,0,0,0,0,0
2019-01-11 16:14:57.000,-0.08750000000000001,0.8355000000000001,-0.2,23.414799999999996,-7.5242,-14.5,heavy,A,3,1,0,0,0,0,0
2019-01-11 16:14:57.200,-0.12833333333333333,0.8706666666666667,-0.24533333333333332,11.951,-11.1218,-7.0244,heavy,A,3,1,0,0,0,0,0
2019-01-11 16:14:57.400,-0.183,0.9035,-0.249,-7.9512,-18.8294,20.5366,heavy,A,3,1,0,0,0,0,0
2019-01-11 16:14:57.600,-0.164,1.168,-0.16933333333333334,-12.2194,-2.2439999999999998,4.829200000000002,heavy,A,3,1,0,0,0,0,0
2019-01-11 16:14:57.800,-0.1815,1.2965,-0.13,-18.634,20.877999999999997,-33.7804,heavy,A,3,1,0,0,0,0,0
2019-01-11 16:14:58.000,-0.19866666666666666,0.8746666666666666,-0.16666666666666666,3.5976,6.6584,-9.9634,heavy,A,3,1,0,0,0,0,0
2019-01-11 16:14:58.200,-0.22949999999999998,0.9015,-0.17099999999999999,9.8902,5.3292,7.0732,heavy,A,3,1,0,0,0,0,0
2019-01-11 16:14:58.400,-0.2143333333333333,0.9096666666666667,-0.169,2.9391999999999996,0.8536000000000001,4.0366,heavy,A,3,1,0,0,0,0,0
2019-01-11 16:14:58.600,-0.20650000000000002,0.9359999999999999,-0.21000000000000002,0.7074000000000003,-3.2682,8.5122,heavy,A,3,1,0,0,0,0,0
2019-01-11 16:14:58.800,-0.18966666666666668,0.9566666666666667,-0.19533333333333333,-4.378,-5.61,12.7684,heavy,A,3,1,0,0,0,0,0
2019-01-11 16:14:59.000,-0.1505,0.9610000000000001,-0.16449999999999998,-10.5488,-9.207,17.8414,heavy,A,3,1,0,0,0,0,0
2019-01-11 16:14:59.200,-0.09133333333333334,0.9636666666666667,-0.117,-16.5368,8.975800000000001,28.329200000000004,heavy,A,3,1,0,0,0,0,0
2019-01-11 16:14:59.400,-0.025,0.843,-0.0835,3.1584000000000003,7.0001999999999995,4.3416,heavy,A,3,1,0,0,0,0,0
2019-01-11 16:14:59.600,0.017666666666666667,0.9553333333333334,-0.10533333333333332,8.2926,-4.4024,0.3292000000000002,heavy,A,3,1,0,0,0,0,0
2019-01-11 16:14:59.800,0.033,0.987,-0.128,0.18299999999999994,-3.7195,-0.8534999999999999,heavy,A,3,1,0,0,0,0,0
2019-01-11 16:38:55.000,-0.0625,0.901,0.047,0.4389999999999999,-6.5,-0.0854000000000001,heavy,A,9,0,0,1,0,0,0
2019-01-11 16:38:55.200,-0.08066666666666666,1.0806666666666667,0.06033333333333333,5.5976,-3.2196,-1.4266,heavy,A,9,0,0,1,0,0,0
2019-01-11 16:38:55.400,-0.1375,1.314,0.024,20.8534,7.7562,-44.134,heavy,A,9,0,0,1,0,0,0
2019-01-11 16:38:55.600,-0.23466666666666666,0.9103333333333333,-0.006999999999999999,17.768400000000003,11.488,-35.0002,heavy,A,9,0,0,1,0,0,0
2019-01-11 16:38:55.800,-0.337,0.861,-0.0955,2.3778000000000006,2.2682,-4.622,heavy,A,9,0,0,1,0,0,0
2019-01-11 16:38:56.000,-0.327,0.9166666666666666,-0.10333333333333333,-8.512,3.4635999999999996,20.1706,heavy,A,9,0,0,1,0,0,0
2019-01-11 16:38:56.200,-0.232,0.8875,-0.08850000000000001,-21.8658,8.6464,50.6462,heavy,A,9,0,0,1,0,0,0
2019-01-11 16:38:56.400,-0.11333333333333334,0.7240000000000001,-0.04966666666666667,10.8292,-14.853800000000001,3.8903999999999996,heavy,A,9,0,0,1,0,0,0
2019-01-11 16:38:56.600,-0.11350000000000002,0.9275,-0.06,22.2808,-8.8046,-11.2562,heavy,A,9,0,0,1,0,0,0
2019-01-11 16:38:56.800,-0.14566666666666667,0.749,-0.12733333333333333,19.4512,1.0000000000000002,-27.8414,heavy,A,9,0,0,1,0,0,0
2019-01-11 16:38:57.000,-0.219,0.8465,-0.16949999999999998,6.683,-4.0,-5.1462,heavy,A,9,0,0,1,0,0,0
2019-01-11 16:38:57.200,-0.25166666666666665,0.9526666666666666,-0.1446666666666667,-18.0242,-15.1588,21.8536,heavy,A,9,0,0,1,0,0,0
2019-01-11 16:38:57.400,-0.1805,1.0950000000000002,-0.084,-34.6584,-5.5973999999999995,37.878,heavy,A,9,0,0,1,0,0,0
2019-01-11 16:38:57.600,-0.076,1.2146666666666668,-0.02133333333333333,-13.889999999999997,-2.122,17.463600000000003,heavy,A,9,0,0,1,0,0,0
2019-01-11 16:38:57.800,0.0045000000000000005,0.8955000000000001,0.044500000000000005,2.0976,-1.9146,-0.08519999999999994,heavy,A,9,0,0,1,0,0,0
2019-01-11 16:38:58.000,-0.05266666666666666,1.2086666666666668,0.04533333333333334,10.6098,1.2439999999999998,-20.2802,heavy,A,9,0,0,1,0,0,0
2019-01-11 16:38:58.200,-0.1685,1.1915,-0.0025000000000000005,43.5976,10.0,-56.2924,heavy,A,9,0,0,1,0,0,0
2019-01-11 16:38:58.400,-0.2773333333333334,0.892,-0.13433333333333333,-0.41440000000000055,3.561,-19.5,heavy,A,9,0,0,1,0,0,0
2019-01-11 16:38:58.600,-0.312,0.8445,-0.113,-25.926799999999997,-0.4268000000000002,5.5244,heavy,A,9,0,0,1,0,0,0
2019-01-11 16:38:58.800,-0.26566666666666666,0.8543333333333334,-0.028333333333333335,-13.9024,-2.3172000000000006,36.6098,heavy,A,9,0,0,1,0,0,0
2019-01-11 16:38:59.000,-0.1375,0.74,-0.021500000000000002,18.0974,-6.1098,34.96339999999999,heavy,A,9,0,0,1,0,0,0
2019-01-11 16:38:59.200,-0.11766666666666668,0.8706666666666667,-0.07566666666666667,14.182999999999998,-7.012400000000001,-8.316799999999999,heavy,A,9,0,0,1,0,0,0
2019-01-11 16:38:59.400,-0.1365,0.736,-0.146,19.0486,-7.0976,-32.5976,heavy,A,9,0,0,1,0,0,0
2019-01-11 16:38:59.600,-0.2316666666666667,0.8373333333333335,-0.16133333333333333,6.2074,-3.9143999999999997,-21.061,heavy,A,9,0,0,1,0,0,0
2019-01-11 16:38:59.800,-0.283,0.8825000000000001,-0.189,9.8294,-10.5854,15.1096,heavy,A,9,0,0,1,0,0,0
2019-01-11 16:39:00.000,-0.25066666666666665,1.0066666666666666,-0.18400000000000002,-34.0608,-9.2926,32.9392,heavy,A,9,0,0,1,0,0,0
2019-01-11 16:39:00.200,-0.15699999999999997,1.138,-0.082,-24.366000000000003,-5.9144000000000005,23.0974,heavy,A,9,0,0,1,0,0,0
2019-01-11 16:39:00.400,-0.09566666666666668,1.1306666666666667,-0.019333333333333338,0.4147999999999996,-2.0124000000000004,0.9148000000000003,heavy,A,9,0,0,1,0,0,0
2019-01-11 16:39:00.600,-0.0925,0.9785,0.013999999999999999,11.5242,-0.4756,-7.8294,heavy,A,9,0,0,1,0,0,0
2019-01-11 16:39:00.800,-0.09466666666666668,0.85,-0.0013333333333333333,-6.9636,-2.3411999999999997,1.5366,heavy,A,9,0,0,1,0,0,0
2019-01-11 16:39:01.000,-0.1945,1.3780000000000001,-0.0215,20.3536,2.0729999999999995,-23.878,heavy,A,9,0,0,1,0,0,0
2019-01-11 16:39:01.200,-0.2543333333333333,1.0903333333333334,-0.06233333333333333,6.5733999999999995,8.9024,-46.36579999999999,heavy,A,9,0,0,1,0,0,0
2019-01-11 16:39:01.400,-0.3265,0.8225,-0.0615,-6.5976,5.744,-6.0488,heavy,A,9,0,0,1,0,0,0
2019-01-11 16:39:01.600,-0.3333333333333333,0.8649999999999999,-0.082,-4.3538,0.7926,17.5244,heavy,A,9,0,0,1,0,0,0
2019-01-11 16:39:01.800,-0.26249999999999996,0.8995,-0.063,-18.317,-1.7562000000000002,45.6464,heavy,A,9,0,0,1,0,0,0
2019-01-11 16:39:02.000,-0.13,0.7313333333333333,-0.028333333333333332,14.731799999999998,-5.0244,18.024400000000004,heavy,A,9,0,0,1,0,0,0
2019-01-11 16:39:02.200,-0.136,0.934,-0.0505,19.622,-5.5732,-13.487799999999998,heavy,A,9,0,0,1,0,0,0
2019-01-11 16:39:02.400,-0.12933333333333333,0.7406666666666665,-0.13233333333333333,30.3656,-5.5367999999999995,-23.3536,heavy,A,9,0,0,1,0,0,0
2019-01-11 16:39:02.600,-0.196,0.8049999999999999,-0.2345,6.744199999999999,-5.7196,-4.622,heavy,A,9,0,0,1,0,0,0
2019-01-11 16:39:02.800,-0.237,0.9173333333333332,-0.18999999999999997,-39.1586,-14.5,14.3536,heavy,A,9,0,0,1,0,0,0
2019-01-11 16:39:03.000,-0.174,1.1055000000000001,-0.031,-38.8656,-8.0974,41.2316,heavy,A,9,0,0,1,0,0,0
2019-01-11 16:39:03.200,-0.09033333333333333,1.2806666666666668,0.036,-5.4878,-6.5122,6.8536,heavy,A,9,0,0,1,0,0,0
2019-01-11 16:39:03.400,-0.0615,0.935,0.0655,13.414599999999998,-3.0124000000000004,-8.7682,heavy,A,9,0,0,1,0,0,0
2019-01-11 16:39:03.600,-0.06533333333333334,0.8733333333333334,0.063,-4.2316,-8.2072,8.9392,heavy,A,9,0,0,1,0,0,0
2019-01-11 16:39:03.800,-0.12,1.416,0.061,20.7318,6.158799999999999,-36.0364,heavy,A,9,0,0,1,0,0,0
2019-01-11 16:39:04.000,-0.20933333333333334,1.0076666666666667,-0.009666666666666665,18.8048,8.3658,-47.4514,heavy,A,9,0,0,1,0,0,0
2019-01-11 16:39:04.200,-0.343,0.8525,-0.088,10.0242,11.317,-15.048799999999996,heavy,A,9,0,0,1,0,0,0
2019-01-11 16:39:04.400,-0.37766666666666665,0.8603333333333333,-0.132,-8.3294,1.8294000000000001,8.5244,heavy,A,9,0,0,1,0,0,0
2019-01-11 16:39:04.600,-0.34099999999999997,0.889,-0.098,-19.439,-2.183,25.3536,heavy,A,9,0,0,1,0,0,0
2019-01-11 16:39:04.800,-0.20933333333333334,0.8223333333333332,-0.03933333333333333,-8.3778,3.8414,53.7682,heavy,A,9,0,0,1,0,0,0
2019-01-11 16:39:05.000,-0.0935,0.821,-0.07700000000000001,12.4268,-6.0122,-0.31719999999999987,heavy,A,9,0,0,1,0,0,0
2019-01-11 16:39:05.200,-0.10400000000000002,0.883,-0.059666666666666666,15.280599999999998,-11.3048,-18.6586,heavy,A,9,0,0,1,0,0,0
2019-01-11 16:39:05.400,-0.15,0.7905,-0.129,31.6464,2.5852,-23.207199999999997,heavy,A,9,0,0,1,0,0,0
2019-01-11 16:39:05.600,-0.238,0.8543333333333334,-0.19466666666666668,-1.8536000000000001,-3.817,-12.1342,heavy,A,9,0,0,1,0,0,0
2019-01-11 16:39:05.800,-0.2455,0.871,-0.1885,-9.0124,-13.6464,15.926799999999997,heavy,A,9,0,0,1,0,0,0
2019-01-11 16:39:06.000,-0.22299999999999998,1.0596666666666668,-0.09800000000000002,-18.6586,-9.244,28.6218,heavy,A,9,0,0,1,0,0,0
2019-01-11 16:39:06.200,-0.189,1.2515,-0.128,-21.585200000000004,-0.25620000000000004,12.756,heavy,A,9,0,0,1,0,0,0
2019-01-11 16:39:06.400,-0.11533333333333333,0.9780000000000001,-0.014666666666666668,7.0486,-0.5610000000000003,-4.939,heavy,A,9,0,0,1,0,0,0
2019-01-11 16:39:06.600,-0.0995,0.8160000000000001,-0.021,-7.1828,-4.6708,11.5244,heavy,A,9,0,0,1,0,0,0
2019-01-11 16:39:06.800,-0.19666666666666666,1.350666666666667,-0.06133333333333333,27.0246,-0.23180000000000023,-39.9634,heavy,A,9,0,0,1,0,0,0
2019-01-11 16:39:07.000,-0.2455,0.937,-0.07550000000000001,3.7804,10.0,-37.5852,heavy,A,9,0,0,1,0,0,0
2019-01-11 16:39:07.200,-0.3356666666666666,0.8603333333333333,-0.11066666666666665,-3.061,7.8172,-5.0001999999999995,heavy,A,9,0,0,1,0,0,0
2019-01-11 16:39:07.400,-0.3375,0.8555,-0.10149999999999999,-11.7926,9.3902,10.939,heavy,A,9,0,0,1,0,0,0
2019-01-11 16:39:07.600,-0.30833333333333335,0.8956666666666666,-0.04733333333333333,-20.890400000000003,1.5120000000000005,18.1462,heavy,A,9,0,0,1,0,0,0
2019-01-11 16:39:07.800,-0.208,0.913,0.0075,0.7440000000000001,3.8781999999999996,54.28060000000001,heavy,A,9,0,0,1,0,0,0
2019-01-11 16:39:08.000,-0.09133333333333334,0.7803333333333332,-0.05833333333333333,13.0732,-6.353599999999999,7.853599999999998,heavy,A,9,0,0,1,0,0,0
2019-01-11 16:39:08.200,-0.0845,0.9835,-0.07550000000000001,5.0854,-5.756,-15.244200000000001,heavy,A,9,0,0,1,0,0,0
2019-01-11 16:39:08.400,-0.10166666666666667,0.7576666666666666,-0.106,30.914599999999997,-10.1462,-22.3534,heavy,A,9,0,0,1,0,0,0
2019-01-11 16:39:08.600,-0.1895,0.808,-0.168,5.085600000000001,-7.2074,-20.1098,heavy,A,9,0,0,1,0,0,0
2019-01-11 16:39:08.800,-0.25633333333333336,0.923,-0.13933333333333334,-22.0608,-14.073000000000002,19.6222,heavy,A,9,0,0,1,0,0,0
2019-01-11 16:39:09.000,-0.169,1.077,-0.0575,-20.365999999999996,-13.4512,44.50000000000001,heavy,A,9,0,0,1,0,0,0
2019-01-11 16:39:09.200,-0.06233333333333333,1.2009999999999998,-0.006000000000000001,-13.4756,0.8414000000000001,27.244,heavy,A,9,0,0,1,0,0,0
2019-01-11 16:39:09.400,0.022500000000000003,1.0365,0.0285,3.0974000000000004,-2.256,-3.6705999999999994,heavy,A,9,0,0,1,0,0,0
2019-01-11 16:39:09.600,5.782411586589357e-19,0.9536666666666668,0.022333333333333334,-4.6342,-4.3536,-3.3781999999999996,heavy,A,9,0,0,1,0,0,0
2019-01-11 16:39:09.800,-0.011000000000000001,0.9864999999999999,0.056499999999999995,-1.3291999999999997,-3.7074,-5.122,heavy,A,9,0,0,1,0,0,0
2019-01-11 16:39:10.000,-0.039,0.977,0.068,-7.215333333333334,-3.9226666666666667,-9.390333333333333,heavy,A,9,0,0,1,0,0,0
2019-01-11 16:40:08.400,-0.156,0.9443333333333334,-0.06866666666666667,-8.171,3.2076000000000002,1.4024,heavy,B,32,0,0,1,0,0,0
2019-01-11 16:40:08.600,-0.1605,0.9975,-0.053000000000000005,0.9146000000000001,2.1098,-4.9514,heavy,B,32,0,0,1,0,0,0
2019-01-11 16:40:08.800,-0.274,1.2469999999999999,-0.11733333333333333,21.683,32.4024,-48.2196,heavy,B,32,0,0,1,0,0,0
2019-01-11 16:40:09.000,-0.3195,0.8744999999999999,-0.1585,44.622,21.4756,-14.963400000000002,heavy,B,32,0,0,1,0,0,0
2019-01-11 16:40:09.200,-0.329,0.7476666666666666,-0.24833333333333332,13.0,11.0608,-5.622199999999999,heavy,B,32,0,0,1,0,0,0
2019-01-11 16:40:09.400,-0.35700000000000004,0.7855000000000001,-0.3325,16.0488,-2.7926000000000006,7.451400000000001,heavy,B,32,0,0,1,0,0,0
2019-01-11 16:40:09.600,-0.39666666666666667,0.9176666666666667,-0.437,-20.2806,-5.6098,7.0854,heavy,B,32,0,0,1,0,0,0
2019-01-11 16:40:09.800,-0.336,0.998,-0.34550000000000003,-77.9512,-10.2196,30.3414,heavy,B,32,0,0,1,0,0,0
2019-01-11 16:40:10.000,-0.10833333333333332,0.5716666666666667,-0.15533333333333332,-7.622199999999995,14.341399999999998,36.3902,heavy,B,32,0,0,1,0,0,0
2019-01-11 16:40:10.200,-0.192,1.172,0.0385,10.0974,-4.1096,1.4025999999999996,heavy,B,32,0,0,1,0,0,0
2019-01-11 16:40:10.400,-0.11399999999999999,0.883,-0.078,5.805,-8.2926,-0.2193999999999999,heavy,B,32,0,0,1,0,0,0
2019-01-11 16:40:10.600,-0.12100000000000001,0.984,-0.146,10.9756,-6.573,-1.9024,heavy,B,32,0,0,1,0,0,0
2019-01-11 16:40:10.800,-0.14100000000000001,0.9646666666666667,-0.14200000000000002,-1.8293999999999997,3.670600000000001,-4.9754,heavy,B,32,0,0,1,0,0,0
2019-01-11 16:40:11.000,-0.158,0.9475,-0.135,1.9146,7.6706,4.4512,heavy,B,32,0,0,1,0,0,0
2019-01-11 16:40:11.200,-0.15533333333333332,0.949,-0.118,-8.414800000000003,13.329199999999997,5.4268,heavy,B,32,0,0,1,0,0,0
2019-01-11 16:40:11.400,-0.11699999999999999,0.9485,-0.133,13.0732,-20.2438,2.1586000000000003,heavy,B,32,0,0,1,0,0,0
2019-01-11 16:40:11.600,-0.12633333333333333,0.9659999999999999,-0.14833333333333334,-0.6464000000000002,-6.7196,-5.4144000000000005,heavy,B,32,0,0,1,0,0,0
2019-01-11 16:40:11.800,-0.1005,0.698,-0.15,32.7072,1.4147999999999998,-33.1828,heavy,B,32,0,0,1,0,0,0
2019-01-11 16:40:12.000,-0.2373333333333333,0.7613333333333333,-0.2996666666666667,38.8902,2.2683999999999997,-16.426799999999997,heavy,B,32,0,0,1,0,0,0
2019-01-11 16:40:12.200,-0.2935,0.819,-0.40149999999999997,12.5248,-11.7562,-1.0120000000000005,heavy,B,32,0,0,1,0,0,0
2019-01-11 16:40:12.400,-0.36366666666666675,0.9026666666666667,-0.3476666666666666,-15.097399999999999,-9.256,-4.7684,heavy,B,32,0,0,1,0,0,0
2019-01-11 16:40:12.600,-0.421,0.97,-0.28350000000000003,-49.76819999999999,-19.7806,14.914600000000002,heavy,B,32,0,0,1,0,0,0
2019-01-11 16:40:12.800,-0.313,0.9843333333333334,-0.16166666666666665,-41.46320000000001,-20.7074,25.621999999999996,heavy,B,32,0,0,1,0,0,0
2019-01-11 16:40:13.000,-0.311,1.387,-0.096,25.0122,27.2438,-11.158599999999998,heavy,B,32,0,0,1,0,0,0
2019-01-11 16:40:13.200,-0.355,1.0656666666666668,-0.21233333333333335,80.2562,31.2438,-22.9754,heavy,B,32,0,0,1,0,0,0
2019-01-11 16:40:13.400,-0.33499999999999996,0.8385,-0.405,8.6462,-15.866000000000003,-18.8782,heavy,B,32,0,0,1,0,0,0
2019-01-11 16:40:13.600,-0.33266666666666667,0.7003333333333334,-0.371,-22.2196,8.9146,9.6218,heavy,B,32,0,0,1,0,0,0
2019-01-11 16:40:13.800,-0.34099999999999997,0.81,-0.2925,-31.805,-3.7437999999999994,15.5732,heavy,B,32,0,0,1,0,0,0
2019-01-11 16:40:14.000,-0.29000000000000004,0.8643333333333333,-0.17733333333333334,-40.878,-29.731599999999997,44.62179999999999,heavy,B,32,0,0,1,0,0,0
2019-01-11 16:40:14.200,-0.1335,0.6575,-0.1325,17.0854,0.1706000000000003,7.366,heavy,B,32,0,0,1,0,0,0
2019-01-11 16:40:14.400,-0.16866666666666666,0.9963333333333334,-0.14133333333333334,-9.072999999999999,-6.4756,-6.0488,heavy,B,32,0,0,1,0,0,0
2019-01-11 16:40:14.600,-0.096,0.469,-0.08199999999999999,60.70740000000001,12.7684,-43.5004,heavy,B,32,0,0,1,0,0,0
2019-01-11 16:40:14.800,-0.37433333333333335,0.9213333333333334,-0.3453333333333333,30.975599999999996,-4.207599999999999,-1.8536000000000001,heavy,B,32,0,0,1,0,0,0
2019-01-11 16:40:15.000,-0.35750000000000004,0.8895,-0.3755,-12.0122,-10.755999999999998,-14.4024,heavy,B,32,0,0,1,0,0,0
2019-01-11 16:40:15.200,-0.428,0.8686666666666666,-0.3196666666666666,-9.6098,-21.914799999999996,3.878,heavy,B,32,0,0,1,0,0,0
2019-01-11 16:40:15.400,-0.489,0.9635,-0.3115,-40.14659999999999,-5.6708,14.0732,heavy,B,32,0,0,1,0,0,0
2019-01-11 16:40:15.600,-0.355,0.9129999999999999,-0.15066666666666667,-25.1218,-10.2438,25.549,heavy,B,32,0,0,1,0,0,0
2019-01-11 16:40:15.800,-0.2855,1.044,-0.0595,-11.817000000000002,-16.207600000000003,9.7804,heavy,B,32,0,0,1,0,0,0
2019-01-11 16:40:16.000,-0.3866666666666667,1.2366666666666666,-0.10733333333333334,65.8658,48.0976,-26.6584,heavy,B,32,0,0,1,0,0,0
2019-01-11 16:40:16.200,-0.377,0.9075,-0.26949999999999996,43.2074,12.829399999999998,-15.207400000000002,heavy,B,32,0,0,1,0,0,0
2019-01-11 16:40:16.400,-0.36200000000000004,0.806,-0.39399999999999996,4.378,-13.0856,-0.6341999999999995,heavy,B,32,0,0,1,0,0,0
2019-01-11 16:40:16.600,-0.3685,0.8335,-0.4535,-31.6952,-8.305000000000001,19.329200000000004,heavy,B,32,0,0,1,0,0,0
2019-01-11 16:40:16.800,-0.251,0.7283333333333332,-0.21266666666666667,-66.86600000000001,5.280200000000001,36.7438,heavy,B,32,0,0,1,0,0,0
2019-01-11 16:40:17.000,-0.16249999999999998,0.6964999999999999,-0.137,15.121999999999995,-8.9148,9.5974,heavy,B,32,0,0,1,0,0,0
2019-01-11 16:40:17.200,-0.17700000000000002,0.9706666666666667,-0.128,4.231800000000001,-4.5244,5.6096,heavy,B,32,0,0,1,0,0,0
2019-01-11 16:40:17.400,-0.166,0.9635,-0.16849999999999998,2.2683999999999997,-6.549000000000001,-16.3416,heavy,B,32,0,0,1,0,0,0
2019-01-11 16:40:17.600,-0.16066666666666665,0.5933333333333333,-0.145,49.24400000000001,9.158600000000002,-32.0732,heavy,B,32,0,0,1,0,0,0
2019-01-11 16:40:17.800,-0.39649999999999996,0.9475,-0.3505,30.4758,-1.6219999999999999,-12.817000000000002,heavy,B,32,0,0,1,0,0,0
2019-01-11 16:40:18.000,-0.36866666666666664,0.8663333333333334,-0.43133333333333335,6.0242,-0.2559999999999998,0.5242000000000004,heavy,B,32,0,0,1,0,0,0
2019-01-11 16:40:18.200,-0.38,0.8035000000000001,-0.41800000000000004,-17.6218,-11.6952,8.0242,heavy,B,32,0,0,1,0,0,0
2019-01-11 16:40:18.400,-0.4023333333333334,0.9500000000000001,-0.3176666666666666,-40.86579999999999,-4.2196,8.7804,heavy,B,32,0,0,1,0,0,0
2019-01-11 16:40:18.600,-0.3315,0.9655,-0.22150000000000003,-36.1584,-12.573,18.0244,heavy,B,32,0,0,1,0,0,0
2019-01-11 16:40:18.800,-0.26399999999999996,0.9446666666666667,-0.08533333333333333,-13.756,-18.9144,15.756200000000002,heavy,B,32,0,0,1,0,0,0
2019-01-11 16:40:19.000,-0.29000000000000004,1.2435,-0.075,4.805,8.7072,-8.9268,heavy,B,32,0,0,1,0,0,0
2019-01-11 16:40:19.200,-0.33499999999999996,1.084666666666667,-0.12366666666666666,75.6586,29.8904,-16.7686,heavy,B,32,0,0,1,0,0,0
2019-01-11 16:40:19.400,-0.33699999999999997,0.8679999999999999,-0.3125,23.0122,-11.2438,-20.5366,heavy,B,32,0,0,1,0,0,0
2019-01-11 16:40:19.600,-0.3713333333333333,0.8086666666666668,-0.38666666666666666,10.4268,-4.6342,-3.7926,heavy,B,32,0,0,1,0,0,0
2019-01-11 16:40:19.800,-0.401,0.774,-0.3235,-7.0732,5.2196,6.1706,heavy,B,32,0,0,1,0,0,0
2019-01-11 16:40:20.000,-0.35766666666666663,0.8406666666666668,-0.39799999999999996,-24.0366,-17.9756,29.280399999999997,heavy,B,32,0,0,1,0,0,0
2019-01-11 16:40:20.200,-0.20900000000000002,0.828,-0.159,-83.7074,24.170800000000003,25.4514,heavy,B,32,0,0,1,0,0,0
2019-01-11 16:40:20.400,-0.17166666666666663,0.8109999999999999,-0.13366666666666668,31.731800000000003,-5.4148,1.305,heavy,B,32,0,0,1,0,0,0
2019-01-11 16:40:20.600,-0.2135,0.911,-0.15800000000000003,9.7928,-7.6342,12.0488,heavy,B,32,0,0,1,0,0,0
2019-01-11 16:40:20.800,-0.15433333333333332,0.9580000000000001,-0.16733333333333333,-11.3416,-6.658799999999999,-4.0366,heavy,B,32,0,0,1,0,0,0
2019-01-11 16:40:21.000,-0.183,0.9515,-0.1345,0.30500000000000005,-11.2318,-13.4268,heavy,B,32,0,0,1,0,0,0
2019-01-11 16:40:21.200,-0.21133333333333335,0.7953333333333333,-0.11966666666666666,27.439,13.804599999999999,-18.061,heavy,B,32,0,0,1,0,0,0
2019-01-11 16:40:21.400,-0.2715,0.7150000000000001,-0.14150000000000001,6.5366,15.3416,-44.683,heavy,B,32,0,0,1,0,0,0
2019-01-11 16:40:21.600,-0.38933333333333336,0.7983333333333332,-0.284,31.1466,1.1342000000000003,7.2926,heavy,B,32,0,0,1,0,0,0
2019-01-11 16:40:21.800,-0.4245,0.8969999999999999,-0.32,-18.7928,-13.1464,11.9636,heavy,B,32,0,0,1,0,0,0
2019-01-11 16:40:22.000,-0.41533333333333333,0.9596666666666667,-0.22866666666666668,-43.561,-18.8538,11.633799999999999,heavy,B,32,0,0,1,0,0,0
2019-01-11 16:40:22.200,-0.372,1.0154999999999998,-0.0365,-45.0366,-23.8778,20.133999999999997,heavy,B,32,0,0,1,0,0,0
2019-01-11 16:40:22.400,-0.29433333333333334,1.0336666666666667,0.05499999999999999,-20.9024,-18.512,14.548599999999997,heavy,B,32,0,0,1,0,0,0
2019-01-11 16:40:22.600,-0.3285,1.2919999999999998,0.128,34.68299999999999,23.195,-8.622,heavy,B,32,0,0,1,0,0,0
2019-01-11 16:40:22.800,-0.3396666666666666,0.9550000000000001,-0.0046666666666666705,78.91440000000001,-11.2072,-31.317,heavy,B,32,0,0,1,0,0,0
2019-01-11 16:40:23.000,-0.347,0.855,-0.22249999999999998,28.244,12.134,-23.780400000000004,heavy,B,32,0,0,1,0,0,0
2019-01-11 16:40:23.200,-0.4693333333333333,0.8146666666666667,-0.32066666666666666,11.561,1.366,0.1829999999999999,heavy,B,32,0,0,1,0,0,0
2019-01-11 16:40:23.400,-0.472,0.8185,-0.3535,-25.5366,0.8904,0.9997999999999999,heavy,B,32,0,0,1,0,0,0
2019-01-11 16:40:23.600,-0.40066666666666667,0.8146666666666667,-0.2806666666666667,-31.6342,15.231799999999998,22.1464,heavy,B,32,0,0,1,0,0,0
2019-01-11 16:40:23.800,-0.3195,0.7530000000000001,-0.179,1.5974000000000004,-13.3536,33.4268,heavy,B,32,0,0,1,0,0,0
2019-01-11 16:40:24.000,-0.24700000000000003,0.8266666666666667,-0.12333333333333334,-33.47539999999999,-4.0122,15.609800000000003,heavy,B,32,0,0,1,0,0,0
2019-01-11 16:40:24.200,-0.159,0.9235,-0.1815,16.2806,-0.5002000000000003,-3.2075999999999993,heavy,B,32,0,0,1,0,0,0
2019-01-11 16:40:24.400,-0.238,0.8726666666666666,-0.16333333333333336,15.341399999999998,1.0854000000000006,-6.8904,heavy,B,32,0,0,1,0,0,0
2019-01-11 16:40:24.600,-0.1915,0.6475,-0.1765,45.7926,3.9265999999999996,-17.646400000000003,heavy,B,32,0,0,1,0,0,0
2019-01-11 16:40:24.800,-0.30866666666666664,0.811,-0.3296666666666667,18.9634,3.0608000000000004,-5.4024,heavy,B,32,0,0,1,0,0,0
2019-01-11 16:40:25.000,-0.3095,0.868,-0.381,-14.317000000000002,1.7680000000000007,4.805,heavy,B,32,0,0,1,0,0,0
2019-01-11 16:40:25.200,-0.304,0.9420000000000001,-0.341,-15.0976,-7.1584,29.8536,heavy,B,32,0,0,1,0,0,0
2019-01-11 16:40:25.400,-0.24400000000000002,1.0735000000000001,-0.3045,-40.134,-16.366000000000003,35.91459999999999,heavy,B,32,0,0,1,0,0,0
2019-01-11 16:40:25.600,-0.12366666666666666,1.0676666666666668,-0.21733333333333335,-6.2074000000000025,-32.817,13.4876,heavy,B,32,0,0,1,0,0,0
2019-01-11 16:40:25.800,-0.0865,0.9775,-0.0495,-21.138,-8.150333333333334,0.1423333333333332,heavy,B,32,0,0,1,0,0,0
2019-01-11 16:41:25.000,-0.15466666666666665,1.2633333333333334,-0.04733333333333334,10.719600000000002,-0.35360000000000014,-18.6462,heavy,A,10,0,0,1,0,0,0
2019-01-11 16:41:25.200,-0.2375,1.039,-0.025500000000000002,17.5852,9.9146,-49.39,heavy,A,10,0,0,1,0,0,0
2019-01-11 16:41:25.400,-0.318,0.828,-0.07266666666666667,4.4878,5.5,-6.1342,heavy,A,10,0,0,1,0,0,0
2019-01-11 16:41:25.600,-0.3435,0.883,-0.104,-11.1464,0.5122,7.3416,heavy,A,10,0,0,1,0,0,0
2019-01-11 16:41:25.800,-0.316,0.9086666666666666,-0.06333333333333334,-13.8416,-1.561,22.061,heavy,A,10,0,0,1,0,0,0
2019-01-11 16:41:26.000,-0.2175,0.772,-0.0305,-1.7318000000000005,1.4513999999999998,37.99980000000001,heavy,A,10,0,0,1,0,0,0
2019-01-11 16:41:26.200,-0.133,0.8333333333333334,-0.104,11.0364,-9.4634,-13.9388,heavy,A,10,0,0,1,0,0,0
2019-01-11 16:41:26.400,-0.1625,0.7125,-0.11400000000000002,41.21939999999999,-5.5245999999999995,-19.5974,heavy,A,10,0,0,1,0,0,0
2019-01-11 16:41:26.600,-0.2383333333333333,0.7703333333333333,-0.18699999999999997,-2.6950000000000003,-8.695,-11.3658,heavy,A,10,0,0,1,0,0,0
2019-01-11 16:41:26.800,-0.306,0.9275,-0.1485,-31.6342,-9.8172,7.7684,heavy,A,10,0,0,1,0,0,0
2019-01-11 16:41:27.000,-0.25833333333333336,1.0223333333333333,0.009666666666666665,-47.1952,-16.7926,36.2074,heavy,A,10,0,0,1,0,0,0
2019-01-11 16:41:27.200,-0.1845,1.3205,0.15300000000000002,5.3902,-4.4146,28.2926,heavy,A,10,0,0,1,0,0,0
2019-01-11 16:41:27.400,-0.05266666666666667,0.9143333333333334,0.07766666666666668,5.7562,-3.2316000000000003,5.8292,heavy,A,10,0,0,1,0,0,0
2019-01-11 16:41:27.600,-0.087,1.2775,0.11850000000000001,0.6585999999999984,-7.2196,-26.8658,heavy,A,10,0,0,1,0,0,0
2019-01-11 16:41:27.800,-0.22633333333333336,1.1643333333333334,0.052,52.8414,18.6586,-44.7562,heavy,A,10,0,0,1,0,0,0
2019-01-11 16:41:28.000,-0.301,0.8820000000000001,-0.084,-8.072999999999999,-5.6708,-13.2684,heavy,A,10,0,0,1,0,0,0
2019-01-11 16:41:28.200,-0.282,0.8433333333333333,-0.059,-23.8782,7.2316,3.8048,heavy,A,10,0,0,1,0,0,0
2019-01-11 16:41:28.400,-0.2865,0.8905000000000001,0.017499999999999998,-10.1096,4.3414,33.2682,heavy,A,10,0,0,1,0,0,0
2019-01-11 16:41:28.600,-0.14566666666666667,0.7633333333333333,0.010333333333333333,10.805,-12.5002,38.183,heavy,A,10,0,0,1,0,0,0
2019-01-11 16:41:28.800,-0.1265,0.8975,-0.029,20.6586,-2.634199999999999,-16.7926,heavy,A,10,0,0,1,0,0,0
2019-01-11 16:41:29.000,-0.15133333333333335,0.7213333333333334,-0.10966666666666668,32.2436,-6.4514,-34.1098,heavy,A,10,0,0,1,0,0,0
2019-01-11 16:41:29.200,-0.2485,0.8315,-0.2005,3.3902,-1.1098000000000001,-10.036399999999999,heavy,A,10,0,0,1,0,0,0
2019-01-11 16:41:29.400,-0.289,0.919,-0.159,-16.9878,-7.3904,7.366,heavy,A,10,0,0,1,0,0,0
2019-01-11 16:41:29.600,-0.2745,1.022,-0.0535,-40.6462,-13.061000000000002,30.7682,heavy,A,10,0,0,1,0,0,0
2019-01-11 16:41:29.800,-0.18633333333333335,1.2413333333333334,0.024666666666666667,-14.438999999999998,-6.4754000000000005,20.938999999999993,heavy,A,10,0,0,1,0,0,0
2019-01-11 16:41:30.000,-0.091,0.9375,0.0475,14.012,-5.0978,-3.9269999999999996,heavy,A,10,0,0,1,0,0,0
2019-01-11 16:41:30.200,-0.168,1.1173333333333335,0.08166666666666667,-37.17060000000001,-1.9879999999999995,-12.987799999999998,heavy,A,10,0,0,1,0,0,0
2019-01-11 16:41:30.400,-0.23249999999999998,1.1315000000000002,0.17300000000000001,44.0608,11.9268,-45.50019999999999,heavy,A,10,0,0,1,0,0,0
2019-01-11 16:41:30.600,-0.3336666666666666,0.9046666666666666,0.004666666666666662,40.93900000000001,19.573200000000003,-2.8902,heavy,A,10,0,0,1,0,0,0
2019-01-11 16:41:30.800,-0.345,0.8815000000000001,-0.11699999999999999,-7.5001999999999995,4.1586,1.317,heavy,A,10,0,0,1,0,0,0
2019-01-11 16:41:31.000,-0.2936666666666667,0.9049999999999999,-0.111,-27.670799999999996,1.6218,18.5976,heavy,A,10,0,0,1,0,0,0
2019-01-11 16:41:31.200,-0.2015,0.917,-0.015,-28.926799999999997,1.1222000000000005,49.6342,heavy,A,10,0,0,1,0,0,0
2019-01-11 16:41:31.400,-0.11833333333333333,0.7106666666666667,-0.005333333333333338,13.999799999999999,-9.695,-10.9634,heavy,A,10,0,0,1,0,0,0
2019-01-11 16:41:31.600,-0.14950000000000002,0.925,0.030499999999999996,26.5854,-9.7194,-14.6584,heavy,A,10,0,0,1,0,0,0
2019-01-11 16:41:31.800,-0.19133333333333333,0.725,-0.09433333333333334,25.5978,2.9513999999999996,-34.622,heavy,A,10,0,0,1,0,0,0
2019-01-11 16:41:32.000,-0.30400000000000005,0.8455000000000001,-0.123,8.573,-11.3052,-3.5001999999999995,heavy,A,10,0,0,1,0,0,0
2019-01-11 16:41:32.200,-0.3213333333333333,0.9533333333333335,-0.10266666666666667,-27.061,-12.9756,11.5488,heavy,A,10,0,0,1,0,0,0
2019-01-11 16:41:32.400,-0.3085,1.155,-0.0565,-32.317,-15.743799999999998,25.0612,heavy,A,10,0,0,1,0,0,0
2019-01-11 16:41:32.600,-0.26066666666666666,1.1533333333333333,0.063,18.3902,1.0732000000000002,0.9026,heavy,A,10,0,0,1,0,0,0
2019-01-11 16:41:32.800,-0.1665,0.7670000000000001,-0.0014999999999999996,-8.1098,-0.7562,17.6464,heavy,A,10,0,0,1,0,0,0
2019-01-11 16:41:33.000,-0.17266666666666666,1.1556666666666668,0.07400000000000001,-16.5854,6.1462,-4.9514,heavy,A,10,0,0,1,0,0,0
2019-01-11 16:41:33.200,-0.278,1.1894999999999998,0.0615,44.6464,12.7804,-48.64640000000001,heavy,A,10,0,0,1,0,0,0
2019-01-11 16:41:33.400,-0.35033333333333333,0.8996666666666666,-0.07600000000000001,14.097399999999999,3.4268,-13.170599999999999,heavy,A,10,0,0,1,0,0,0
2019-01-11 16:41:33.600,-0.35,0.845,-0.124,-6.7682,-0.8295999999999999,6.561400000000001,heavy,A,10,0,0,1,0,0,0
2019-01-11 16:41:33.800,-0.332,0.8696666666666667,-0.078,-12.7928,-1.1831999999999998,16.9512,heavy,A,10,0,0,1,0,0,0
2019-01-11 16:41:34.000,-0.27549999999999997,0.9105,-0.020500000000000004,-28.219600000000003,12.4756,40.34159999999999,heavy,A,10,0,0,1,0,0,0
2019-01-11 16:41:34.200,-0.1406666666666667,0.7576666666666667,-0.04833333333333334,8.2194,-6.134199999999999,12.0854,heavy,A,10,0,0,1,0,0,0
2019-01-11 16:41:34.400,-0.16899999999999998,0.8825000000000001,0.019000000000000003,23.2074,-11.2076,-20.426800000000004,heavy,A,10,0,0,1,0,0,0
2019-01-11 16:41:34.600,-0.17500000000000002,0.746,-0.07166666666666667,26.573,-1.3658000000000001,-23.8658,heavy,A,10,0,0,1,0,0,0
2019-01-11 16:41:34.800,-0.263,0.87,-0.152,16.3658,-1.5608000000000002,-2.6464000000000016,heavy,A,10,0,0,1,0,0,0
2019-01-11 16:41:35.000,-0.296,0.94,-0.18800000000000003,-16.622,-14.207400000000002,14.3904,heavy,A,10,0,0,1,0,0,0
2019-01-11 16:41:35.200,-0.276,1.0514999999999999,-0.07,-33.6952,-15.060999999999998,18.878,heavy,A,10,0,0,1,0,0,0
2019-01-11 16:41:35.400,-0.23866666666666667,1.2146666666666668,-0.03333333333333333,-4.9876000000000005,-2.7316,3.8537999999999997,heavy,A,10,0,0,1,0,0,0
2019-01-11 16:41:35.600,-0.155,0.8105,0.040499999999999994,10.438799999999999,0.024199999999999954,8.1828,heavy,A,10,0,0,1,0,0,0
2019-01-11 16:41:35.800,-0.18733333333333332,1.1173333333333333,-0.016333333333333335,-2.6098,1.9024,4.792399999999999,heavy,A,10,0,0,1,0,0,0
2019-01-11 16:41:36.000,-0.243,1.213,-0.009500000000000001,14.4756,14.768200000000002,-51.68299999999999,heavy,A,10,0,0,1,0,0,0
2019-01-11 16:41:36.200,-0.329,0.8606666666666666,-0.05733333333333334,-1.3658000000000001,13.134,-25.561,heavy,A,10,0,0,1,0,0,0
2019-01-11 16:41:36.400,-0.362,0.8134999999999999,-0.07600000000000001,8.390199999999998,0.24359999999999998,4.7562,heavy,A,10,0,0,1,0,0,0
2019-01-11 16:41:36.600,-0.37166666666666665,0.8813333333333334,-0.11633333333333334,-3.4512,4.9756,10.817,heavy,A,10,0,0,1,0,0,0
2019-01-11 16:41:36.800,-0.351,0.906,-0.0905,-7.0486,-2.1344,14.036599999999998,heavy,A,10,0,0,1,0,0,0
2019-01-11 16:41:37.000,-0.2826666666666667,0.9033333333333332,-0.049999999999999996,-14.256,-2.8292,36.5242,heavy,A,10,0,0,1,0,0,0
2019-01-11 16:41:37.200,-0.1605,0.8019999999999999,-0.046,6.9514,-5.4146,22.5854,heavy,A,10,0,0,1,0,0,0
2019-01-11 16:41:37.400,-0.13733333333333334,0.8753333333333333,-0.042333333333333334,3.0286666666666666,0.12200000000000004,-13.130333333333335,heavy,A,10,0,0,1,0,0,0
2019-01-11 16:42:43.400,-0.136,0.986,-0.053,-4.29875,-0.7317499999999999,0.21350000000000002,heavy,B,33,0,0,1,0,0,0
2019-01-11 16:42:43.600,-0.165,0.956,-0.006999999999999999,-13.890199999999998,4.0611999999999995,-2.1950000000000003,heavy,B,33,0,0,1,0,0,0
2019-01-11 16:42:43.800,-0.15700000000000003,0.9443333333333334,0.011666666666666667,3.317,-9.511999999999999,2.7439999999999998,heavy,B,33,0,0,1,0,0,0
2019-01-11 16:42:44.000,-0.15549999999999997,0.8480000000000001,0.001,6.1952,-2.768,4.3536,heavy,B,33,0,0,1,0,0,0
2019-01-11 16:42:44.200,-0.20366666666666666,1.3780000000000001,0.051333333333333335,4.390399999999998,2.817,-8.1952,heavy,B,33,0,0,1,0,0,0
2019-01-11 16:42:44.400,-0.31000000000000005,1.1155000000000002,-0.1245,75.76820000000001,26.9878,-57.76840000000001,heavy,B,33,0,0,1,0,0,0
2019-01-11 16:42:44.600,-0.2823333333333333,0.765,-0.246,6.2804,7.243800000000003,-3.975599999999999,heavy,B,33,0,0,1,0,0,0
2019-01-11 16:42:44.800,-0.3245,0.8714999999999999,-0.334,-41.25619999999999,-4.7806,6.817,heavy,B,33,0,0,1,0,0,0
2019-01-11 16:42:45.000,-0.251,0.7833333333333333,-0.103,-73.5854,-7.2072,37.1342,heavy,B,33,0,0,1,0,0,0
2019-01-11 16:42:45.200,-0.176,0.6904999999999999,0.010999999999999996,14.670799999999996,-12.109599999999997,24.475599999999996,heavy,B,33,0,0,1,0,0,0
2019-01-11 16:42:45.400,-0.13499999999999998,0.9733333333333333,0.04033333333333333,-10.683200000000001,1.6705999999999996,-1.6585999999999999,heavy,B,33,0,0,1,0,0,0
2019-01-11 16:42:45.600,-0.1345,0.9585,0.085,9.7196,-2.2439999999999998,5.561,heavy,B,33,0,0,1,0,0,0
2019-01-11 16:42:45.800,-0.158,0.9560000000000001,0.08366666666666667,6.0122,-2.1828,1.6586000000000003,heavy,B,33,0,0,1,0,0,0
2019-01-11 16:42:46.000,-0.1365,0.956,0.035500000000000004,9.8782,-4.2804,2.6952,heavy,B,33,0,0,1,0,0,0
2019-01-11 16:42:46.200,-0.12866666666666668,0.9249999999999999,-0.011666666666666667,13.231799999999998,-11.1342,-9.5732,heavy,B,33,0,0,1,0,0,0
2019-01-11 16:42:46.400,-0.10500000000000001,0.6495,-0.08750000000000001,49.10980000000001,16.7682,-24.0854,heavy,B,33,0,0,1,0,0,0
2019-01-11 16:42:46.600,-0.23700000000000002,0.9206666666666666,-0.242,35.57299999999999,-1.9877999999999993,-6.7684,heavy,B,33,0,0,1,0,0,0
2019-01-11 16:42:46.800,-0.2225,0.8325,-0.3525,8.7196,-4.683,-5.7194,heavy,B,33,0,0,1,0,0,0
2019-01-11 16:42:47.000,-0.30466666666666664,0.8983333333333333,-0.3363333333333334,-4.987800000000001,-5.194999999999999,2.6950000000000003,heavy,B,33,0,0,1,0,0,0
2019-01-11 16:42:47.200,-0.28600000000000003,0.9555,-0.28600000000000003,-40.0976,-10.378,6.2928,heavy,B,33,0,0,1,0,0,0
2019-01-11 16:42:47.400,-0.27799999999999997,1.0173333333333332,-0.19533333333333336,-44.0854,-12.549,22.195,heavy,B,33,0,0,1,0,0,0
2019-01-11 16:42:47.600,-0.21250000000000002,1.0595,0.005500000000000001,-7.5001999999999995,-12.6828,13.341600000000003,heavy,B,33,0,0,1,0,0,0
2019-01-11 16:42:47.800,-0.2346666666666667,1.3163333333333334,-0.11466666666666665,68.46340000000001,20.939,-28.9026,heavy,B,33,0,0,1,0,0,0
2019-01-11 16:42:48.000,-0.294,0.9470000000000001,-0.27149999999999996,29.195,4.061,-26.4392,heavy,B,33,0,0,1,0,0,0
2019-01-11 16:42:48.200,-0.32466666666666666,0.7986666666666666,-0.2816666666666667,-21.231600000000004,-12.7316,-8.6828,heavy,B,33,0,0,1,0,0,0
2019-01-11 16:42:48.400,-0.32,0.8260000000000001,-0.2215,-31.5002,17.2072,15.3656,heavy,B,33,0,0,1,0,0,0
2019-01-11 16:42:48.600,-0.297,0.8443333333333335,-0.12633333333333333,-32.59740000000001,-12.7928,19.9268,heavy,B,33,0,0,1,0,0,0
2019-01-11 16:42:48.800,-0.1865,0.89,0.0145,-17.9024,-15.817000000000002,46.36579999999999,heavy,B,33,0,0,1,0,0,0
2019-01-11 16:42:49.000,-0.085,0.8493333333333334,-0.03,18.6706,-3.2682,3.4024,heavy,B,33,0,0,1,0,0,0
2019-01-11 16:42:49.200,-0.068,0.9675,-0.0565,-1.1341999999999999,-4.1584,-0.1342,heavy,B,33,0,0,1,0,0,0
2019-01-11 16:42:49.400,-0.09100000000000001,0.985,-0.02,-0.8902000000000001,-1.2684,0.3658000000000002,heavy,B,33,0,0,1,0,0,0
2019-01-11 16:42:49.600,-0.079,0.963,-0.011,-1.0612000000000001,-1.2562000000000002,-0.5364000000000002,heavy,B,33,0,0,1,0,0,0
2019-01-11 16:42:49.800,-0.10533333333333333,0.9503333333333334,-0.009,-2.8293999999999997,-2.5976,-6.8902,heavy,B,33,0,0,1,0,0,0
2019-01-11 16:42:50.000,-0.112,1.0194999999999999,-0.0005000000000000004,11.3414,-5.6098,7.4632000000000005,heavy,B,33,0,0,1,0,0,0
2019-01-11 16:42:50.200,-0.10666666666666667,0.9273333333333333,-0.04533333333333334,-8.9636,-11.9144,-14.2804,heavy,B,33,0,0,1,0,0,0
2019-01-11 16:42:50.400,-0.14150000000000001,0.73,0.0,42.2804,9.4024,-24.024400000000004,heavy,B,33,0,0,1,0,0,0
2019-01-11 16:42:50.600,-0.22266666666666665,0.842,-0.16466666666666666,27.621799999999997,8.7562,-20.878,heavy,B,33,0,0,1,0,0,0
2019-01-11 16:42:50.800,-0.266,0.9065,-0.27849999999999997,16.939000000000004,-11.5366,-9.256200000000002,heavy,B,33,0,0,1,0,0,0
2019-01-11 16:42:51.000,-0.35333333333333333,0.9216666666666665,-0.2743333333333333,7.9512,3.9146,-4.4512,heavy,B,33,0,0,1,0,0,0
2019-01-11 16:42:51.200,-0.374,0.9325,-0.3045,-7.3172,-3.9510000000000005,-2.8049999999999997,heavy,B,33,0,0,1,0,0,0
2019-01-11 16:42:51.400,-0.34800000000000003,0.8846666666666666,-0.26,-37.683,-9.3296,4.4634,heavy,B,33,0,0,1,0,0,0
2019-01-11 16:42:51.600,-0.361,1.049,-0.195,-21.695,-10.244,30.3294,heavy,B,33,0,0,1,0,0,0
2019-01-11 16:42:51.800,-0.2306666666666667,0.9276666666666666,-0.04966666666666667,-21.3782,-11.5002,14.7928,heavy,B,33,0,0,1,0,0,0
2019-01-11 16:42:52.000,-0.1845,1.0110000000000001,0.026,-11.7074,-11.805,10.841400000000002,heavy,B,33,0,0,1,0,0,0
2019-01-11 16:42:52.200,-0.2376666666666667,1.2673333333333334,-0.005,60.80460000000001,23.3902,-21.8782,heavy,B,33,0,0,1,0,0,0
2019-01-11 16:42:52.400,-0.3025,0.976,-0.235,57.62180000000001,16.329199999999997,-34.9514,heavy,B,33,0,0,1,0,0,0
2019-01-11 16:42:52.600,-0.324,0.8313333333333333,-0.3486666666666667,4.122,-11.841600000000001,-9.707600000000001,heavy,B,33,0,0,1,0,0,0
2019-01-11 16:42:52.800,-0.36950000000000005,0.8085,-0.384,-26.9146,0.4755999999999997,12.3416,heavy,B,33,0,0,1,0,0,0
2019-01-11 16:42:53.000,-0.31133333333333335,0.8763333333333333,-0.21933333333333335,-47.2316,-14.768200000000002,27.6462,heavy,B,33,0,0,1,0,0,0
2019-01-11 16:42:53.200,-0.168,0.739,-0.0325,-28.5854,-10.317,40.4026,heavy,B,33,0,0,1,0,0,0
2019-01-11 16:42:53.400,-0.10666666666666665,0.8889999999999999,-0.038000000000000006,7.9392,-1.4757999999999998,-1.2440000000000004,heavy,B,33,0,0,1,0,0,0
2019-01-11 16:42:53.600,-0.1145,0.887,-0.053500000000000006,6.756,-9.524600000000001,-7.7318,heavy,B,33,0,0,1,0,0,0
2019-01-11 16:42:53.800,-0.112,0.6590000000000001,-0.08066666666666666,55.4024,15.0,-32.60960000000001,heavy,B,33,0,0,1,0,0,0
2019-01-11 16:42:54.000,-0.33199999999999996,0.9545,-0.2175,26.9634,-7.1828,-23.5976,heavy,B,33,0,0,1,0,0,0
2019-01-11 16:42:54.200,-0.33499999999999996,0.8623333333333333,-0.291,4.3902,-12.231599999999998,-5.256,heavy,B,33,0,0,1,0,0,0
2019-01-11 16:42:54.400,-0.4385,0.8875,-0.248,-18.11,-1.1583999999999999,-14.353399999999999,heavy,B,33,0,0,1,0,0,0
2019-01-11 16:42:54.600,-0.455,0.983,-0.25733333333333336,-38.622,-18.4634,34.0974,heavy,B,33,0,0,1,0,0,0
2019-01-11 16:42:54.800,-0.33799999999999997,1.009,-0.07250000000000001,-17.439,-10.2194,34.59740000000001,heavy,B,33,0,0,1,0,0,0
2019-01-11 16:42:55.000,-0.26366666666666666,1.2163333333333333,-0.09000000000000001,16.4878,17.1462,-5.695400000000001,heavy,B,33,0,0,1,0,0,0
2019-01-11 16:42:55.200,-0.3305,1.1045,-0.208,51.5732,14.963400000000002,-25.0368,heavy,B,33,0,0,1,0,0,0
2019-01-11 16:42:55.400,-0.3026666666666667,0.83,-0.25533333333333336,10.4388,9.317,-20.9514,heavy,B,33,0,0,1,0,0,0
2019-01-11 16:42:55.600,-0.32999999999999996,0.7949999999999999,-0.326,11.743799999999998,2.9146,5.3904,heavy,B,33,0,0,1,0,0,0
2019-01-11 16:42:55.800,-0.34933333333333333,0.8626666666666667,-0.35366666666666663,-24.3414,-4.0366,4.0366,heavy,B,33,0,0,1,0,0,0
2019-01-11 16:42:56.000,-0.317,0.883,-0.24100000000000002,-40.317,-22.5854,21.939,heavy,B,33,0,0,1,0,0,0
2019-01-11 16:42:56.200,-0.20299999999999999,0.7559999999999999,-0.11466666666666668,-21.5612,-11.377799999999999,38.439,heavy,B,33,0,0,1,0,0,0
2019-01-11 16:42:56.400,-0.134,0.8829999999999999,-0.057499999999999996,-2.8534,13.694999999999999,1.4388000000000003,heavy,B,33,0,0,1,0,0,0
2019-01-11 16:42:56.600,-0.14933333333333335,0.976,-0.04833333333333334,3.2682,-4.073,3.4512,heavy,B,33,0,0,1,0,0,0
2019-01-11 16:42:56.800,-0.136,0.9865,-0.0615,6.5245999999999995,-4.2194,2.3902,heavy,B,33,0,0,1,0,0,0
2019-01-11 16:42:57.000,-0.13566666666666669,0.9620000000000001,-0.06066666666666667,1.6827999999999999,-0.7928,1.4756,heavy,B,33,0,0,1,0,0,0
2019-01-11 16:42:57.200,-0.129,0.952,-0.0405,-2.7561999999999998,10.475399999999999,-9.0488,heavy,B,33,0,0,1,0,0,0
2019-01-11 16:42:57.400,-0.14733333333333334,0.7383333333333333,-0.137,46.39020000000001,-9.2072,-16.585199999999997,heavy,B,33,0,0,1,0,0,0
2019-01-11 16:42:57.600,-0.2045,0.8365,-0.1675,18.5978,17.7074,-27.256,heavy,B,33,0,0,1,0,0,0
2019-01-11 16:42:57.800,-0.2993333333333334,0.8796666666666667,-0.329,33.5976,-17.0978,-3.5120000000000005,heavy,B,33,0,0,1,0,0,0
2019-01-11 16:42:58.000,-0.373,0.8805000000000001,-0.3555,3.048599999999999,4.731800000000001,7.6584,heavy,B,33,0,0,1,0,0,0
2019-01-11 16:42:58.200,-0.30133333333333334,0.899,-0.37400000000000005,-31.219600000000003,-13.5244,17.8294,heavy,B,33,0,0,1,0,0,0
2019-01-11 16:42:58.400,-0.2855,1.0155,-0.249,-56.988,-19.5486,20.6342,heavy,B,33,0,0,1,0,0,0
2019-01-11 16:42:58.600,-0.19666666666666666,1.0306666666666666,-0.04733333333333334,-31.7438,-20.8414,13.487799999999998,heavy,B,33,0,0,1,0,0,0
2019-01-11 16:42:58.800,-0.21000000000000002,1.3410000000000002,0.0245,36.6828,23.866000000000003,-15.341399999999998,heavy,B,33,0,0,1,0,0,0
2019-01-11 16:42:59.000,-0.248,1.032,-0.13533333333333333,54.1586,13.7072,-38.4268,heavy,B,33,0,0,1,0,0,0
2019-01-11 16:42:59.200,-0.328,0.8285,-0.27949999999999997,27.5366,6.244,-9.5852,heavy,B,33,0,0,1,0,0,0
2019-01-11 16:42:59.400,-0.3383333333333334,0.8079999999999999,-0.341,-1.1827999999999999,2.317,-6.756,heavy,B,33,0,0,1,0,0,0
2019-01-11 16:42:59.600,-0.374,0.8325,-0.38649999999999995,-20.256,-7.4024,5.816800000000001,heavy,B,33,0,0,1,0,0,0
2019-01-11 16:42:59.800,-0.34099999999999997,0.8993333333333333,-0.2703333333333333,-40.6344,-14.634,20.0854,heavy,B,33,0,0,1,0,0,0
2019-01-11 16:43:00.000,-0.20800000000000002,0.8534999999999999,-0.0765,-37.1952,-0.18279999999999993,57.15840000000001,heavy,B,33,0,0,1,0,0,0
2019-01-11 16:43:00.200,-0.11866666666666666,0.7703333333333333,-0.07033333333333334,-0.3171999999999997,1.4634,-7.4514,heavy,B,33,0,0,1,0,0,0
2019-01-11 16:43:00.400,-0.199,1.002,0.028999999999999998,16.1584,-10.341400000000002,-5.9512,heavy,B,33,0,0,1,0,0,0
2019-01-11 16:43:00.600,-0.15966666666666665,0.742,-0.07533333333333332,26.8902,-0.5243999999999996,-31.512,heavy,B,33,0,0,1,0,0,0
2019-01-11 16:43:00.800,-0.208,0.7570000000000001,-0.21050000000000002,37.3414,8.0244,-16.6218,heavy,B,33,0,0,1,0,0,0
2019-01-11 16:43:01.000,-0.2973333333333333,0.875,-0.25633333333333336,20.5,-0.2927999999999983,-0.8903999999999996,heavy,B,33,0,0,1,0,0,0
2019-01-11 16:43:01.200,-0.4225,0.9610000000000001,-0.27549999999999997,-28.0,-13.744,6.1586,heavy,B,33,0,0,1,0,0,0
2019-01-11 16:43:01.400,-0.3343333333333333,1.0116666666666667,-0.20166666666666666,-48.8536,-20.6096,33.4756,heavy,B,33,0,0,1,0,0,0
2019-01-11 16:43:01.600,-0.1675,1.1095000000000002,-0.105,-13.402600000000001,-6.7806,36.6586,heavy,B,33,0,0,1,0,0,0
2019-01-11 16:43:01.800,-0.10233333333333335,1.0296666666666667,-0.027333333333333334,-1.1340000000000001,-3.8903999999999996,3.646000000000001,heavy,B,33,0,0,1,0,0,0
2019-01-11 16:43:02.000,-0.095,0.988,-0.017,3.567,-1.7985,10.5185,heavy,B,33,0,0,1,0,0,0
2019-01-11 16:44:01.200,-0.07,0.988,0.015,4.170599999999999,0.378,6.1098,heavy,A,11,0,0,1,0,0,0
2019-01-11 16:44:01.400,-0.054000000000000006,0.9644999999999999,-0.0015000000000000005,1.7926000000000002,-3.9269999999999996,0.4878,heavy,A,11,0,0,1,0,0,0
2019-01-11 16:44:01.600,-0.07166666666666667,0.9866666666666667,0.010666666666666666,-3.3414,-0.6464,-4.9758,heavy,A,11,0,0,1,0,0,0
2019-01-11 16:44:01.800,-0.07450000000000001,0.867,0.028,6.7562,-10.3904,-2.3904,heavy,A,11,0,0,1,0,0,0
2019-01-11 16:44:02.000,-0.14433333333333334,1.3113333333333335,-0.056666666666666664,25.6342,3.6342,-23.2318,heavy,A,11,0,0,1,0,0,0
2019-01-11 16:44:02.200,-0.1825,0.9709999999999999,-0.059000000000000004,3.5245999999999995,7.7196,-40.30479999999999,heavy,A,11,0,0,1,0,0,0
2019-01-11 16:44:02.400,-0.2986666666666667,0.8696666666666667,-0.09900000000000002,-11.1708,-5.5122,-10.8536,heavy,A,11,0,0,1,0,0,0
2019-01-11 16:44:02.600,-0.32799999999999996,0.8514999999999999,-0.025500000000000002,-16.0852,1.4512,7.121799999999999,heavy,A,11,0,0,1,0,0,0
2019-01-11 16:44:02.800,-0.2813333333333333,0.8946666666666667,0.018666666666666668,-13.988,2.2194000000000003,31.1098,heavy,A,11,0,0,1,0,0,0
2019-01-11 16:44:03.000,-0.1585,0.8140000000000001,0.05500000000000001,10.2804,-0.1583999999999996,36.9514,heavy,A,11,0,0,1,0,0,0
2019-01-11 16:44:03.200,-0.11166666666666665,0.8516666666666667,-0.005333333333333333,12.341399999999998,-3.061,-5.768400000000001,heavy,A,11,0,0,1,0,0,0
2019-01-11 16:44:03.400,-0.10600000000000001,0.774,-0.091,28.121799999999997,-3.1586000000000003,-28.975800000000003,heavy,A,11,0,0,1,0,0,0
2019-01-11 16:44:03.600,-0.207,0.8216666666666667,-0.128,17.0366,1.6098,-12.256,heavy,A,11,0,0,1,0,0,0
2019-01-11 16:44:03.800,-0.23349999999999999,0.887,-0.156,-17.195,-10.439,2.5366,heavy,A,11,0,0,1,0,0,0
2019-01-11 16:44:04.000,-0.24533333333333332,0.9886666666666667,-0.079,-7.2316,-23.0486,25.488,heavy,A,11,0,0,1,0,0,0
2019-01-11 16:44:04.200,-0.1745,1.1535,-0.0545,-31.036400000000004,-5.1828,34.1952,heavy,A,11,0,0,1,0,0,0
2019-01-11 16:44:04.400,-0.07866666666666666,1.1013333333333333,0.06933333333333334,-8.4514,-1.305,7.2806,heavy,A,11,0,0,1,0,0,0
2019-01-11 16:44:04.600,-0.0325,1.114,0.0525,22.7074,-8.3414,-5.7804,heavy,A,11,0,0,1,0,0,0
2019-01-11 16:44:04.800,-0.165,1.2336666666666665,-0.007000000000000002,32.4878,7.865600000000001,-62.08540000000001,heavy,A,11,0,0,1,0,0,0
2019-01-11 16:44:05.000,-0.281,0.878,-0.091,10.914800000000001,2.024400000000001,-25.1096,heavy,A,11,0,0,1,0,0,0
2019-01-11 16:44:05.200,-0.32,0.827,-0.12833333333333333,-14.268200000000002,2.5609999999999995,6.377800000000001,heavy,A,11,0,0,1,0,0,0
2019-01-11 16:44:05.400,-0.3055,0.893,-0.073,-26.0366,1.2684000000000002,26.817,heavy,A,11,0,0,1,0,0,0
2019-01-11 16:44:05.600,-0.16666666666666666,0.8013333333333333,-0.01,-12.024399999999998,14.378000000000004,42.58540000000001,heavy,A,11,0,0,1,0,0,0
2019-01-11 16:44:05.800,-0.129,0.85,-0.0365,21.939,-15.597400000000002,-2.3169999999999993,heavy,A,11,0,0,1,0,0,0
2019-01-11 16:44:06.000,-0.111,0.882,-0.05333333333333334,19.3536,-11.1584,-10.3416,heavy,A,11,0,0,1,0,0,0
2019-01-11 16:44:06.200,-0.14900000000000002,0.726,-0.14300000000000002,19.317,0.7926,-24.6218,heavy,A,11,0,0,1,0,0,0
2019-01-11 16:44:06.400,-0.20299999999999999,0.8530000000000001,-0.17666666666666667,0.7316000000000003,-2.1097999999999995,4.805,heavy,A,11,0,0,1,0,0,0
2019-01-11 16:44:06.600,-0.211,0.9179999999999999,-0.11149999999999999,-35.305,-18.3538,2.3659999999999997,heavy,A,11,0,0,1,0,0,0
2019-01-11 16:44:06.800,-0.2113333333333333,1.1260000000000001,0.043666666666666666,-33.7072,-12.6462,33.878,heavy,A,11,0,0,1,0,0,0
2019-01-11 16:44:07.000,-0.131,1.2585000000000002,0.053,10.2074,-2.3415999999999997,26.585400000000003,heavy,A,11,0,0,1,0,0,0
2019-01-11 16:44:07.200,-0.013666666666666666,0.9373333333333335,0.06766666666666667,0.5244,-1.3291999999999997,-0.3780000000000001,heavy,A,11,0,0,1,0,0,0
2019-01-11 16:44:07.400,-0.088,1.3415,0.0745,18.6098,3.8414,-38.85360000000001,heavy,A,11,0,0,1,0,0,0
2019-01-11 16:44:07.600,-0.19333333333333333,1.0490000000000002,-0.017666666666666667,30.2806,5.0854,-35.256,heavy,A,11,0,0,1,0,0,0
2019-01-11 16:44:07.800,-0.28300000000000003,0.8705,-0.092,9.5734,13.475599999999996,-17.4146,heavy,A,11,0,0,1,0,0,0
2019-01-11 16:44:08.000,-0.312,0.8743333333333334,-0.14366666666666666,-11.4148,0.5852,7.183,heavy,A,11,0,0,1,0,0,0
2019-01-11 16:44:08.200,-0.2655,0.9205,-0.12,-20.8902,1.9633999999999996,33.3048,heavy,A,11,0,0,1,0,0,0
2019-01-11 16:44:08.400,-0.134,0.7303333333333334,-0.059,-11.7682,7.2074,33.9756,heavy,A,11,0,0,1,0,0,0
2019-01-11 16:44:08.600,-0.10850000000000001,0.9405,-0.0215,4.6586,-8.9146,-4.2926,heavy,A,11,0,0,1,0,0,0
2019-01-11 16:44:08.800,-0.104,0.7806666666666667,-0.051,32.5488,-11.573,-25.719600000000003,heavy,A,11,0,0,1,0,0,0
2019-01-11 16:44:09.000,-0.1695,0.765,-0.131,34.366,0.12199999999999984,-22.6098,heavy,A,11,0,0,1,0,0,0
2019-01-11 16:44:09.200,-0.273,0.8923333333333333,-0.21466666666666664,-15.268,-10.365799999999998,0.37799999999999984,heavy,A,11,0,0,1,0,0,0
2019-01-11 16:44:09.400,-0.2405,0.989,-0.13999999999999999,-29.817,-16.9632,39.8416,heavy,A,11,0,0,1,0,0,0
2019-01-11 16:44:09.600,-0.12100000000000001,1.2083333333333333,-0.03133333333333333,-21.878,-5.9148,39.5856,heavy,A,11,0,0,1,0,0,0
2019-01-11 16:44:09.800,-0.038,1.1555,-0.008,13.743799999999998,-2.5732,-4.0244,heavy,A,11,0,0,1,0,0,0
2019-01-11 16:44:10.000,-0.021666666666666667,0.8776666666666667,0.0023333333333333335,-4.9148,5.0001999999999995,9.8292,heavy,A,11,0,0,1,0,0,0
2019-01-11 16:44:10.200,-0.094,1.4680000000000002,-0.07600000000000001,20.9388,2.6708,-46.4756,heavy,A,11,0,0,1,0,0,0
2019-01-11 16:44:10.400,-0.16966666666666666,0.9646666666666666,-0.06766666666666667,20.0122,10.232,-41.8294,heavy,A,11,0,0,1,0,0,0
2019-01-11 16:44:10.600,-0.275,0.8400000000000001,-0.127,13.7928,6.5732,-5.0733999999999995,heavy,A,11,0,0,1,0,0,0
2019-01-11 16:44:10.800,-0.3073333333333333,0.882,-0.18066666666666667,-17.6708,-0.21960000000000016,-0.12200000000000025,heavy,A,11,0,0,1,0,0,0
2019-01-11 16:44:11.000,-0.28150000000000003,0.9219999999999999,-0.14300000000000002,-22.6466,-5.329000000000001,37.183,heavy,A,11,0,0,1,0,0,0
2019-01-11 16:44:11.200,-0.132,0.7943333333333333,-0.022000000000000002,-33.0,22.8534,34.4512,heavy,A,11,0,0,1,0,0,0
2019-01-11 16:44:11.400,-0.093,0.8835,-0.011500000000000003,16.097599999999996,-15.414800000000003,7.3658,heavy,A,11,0,0,1,0,0,0
2019-01-11 16:44:11.600,-0.05733333333333334,0.8963333333333333,-0.021,19.5366,-15.122,-20.756,heavy,A,11,0,0,1,0,0,0
2019-01-11 16:44:11.800,-0.10850000000000001,0.7835,-0.106,50.3414,-8.6706,-24.5854,heavy,A,11,0,0,1,0,0,0
2019-01-11 16:44:12.000,-0.20133333333333334,0.831,-0.22366666666666668,13.853800000000001,-0.5608000000000001,-10.1708,heavy,A,11,0,0,1,0,0,0
2019-01-11 16:44:12.200,-0.2355,0.871,-0.22749999999999998,-29.7928,-12.7926,14.938999999999998,heavy,A,11,0,0,1,0,0,0
2019-01-11 16:44:12.400,-0.19366666666666665,1.11,-0.11133333333333334,-39.2192,-11.7926,39.1098,heavy,A,11,0,0,1,0,0,0
2019-01-11 16:44:12.600,-0.084,1.28,-0.028499999999999998,-5.109399999999999,-0.6584,12.0854,heavy,A,11,0,0,1,0,0,0
2019-01-11 16:44:12.800,-0.05733333333333334,0.9256666666666667,0.0030000000000000005,14.780199999999999,-3.8048,-2.2316000000000003,heavy,A,11,0,0,1,0,0,0
2019-01-11 16:44:13.000,-0.042,0.966,-0.049,-10.6464,-0.5488000000000001,4.561,heavy,A,11,0,0,1,0,0,0
2019-01-11 16:44:13.200,-0.12833333333333333,1.3113333333333335,-0.06833333333333334,28.317,1.9024,-56.96320000000001,heavy,A,11,0,0,1,0,0,0
2019-01-11 16:44:13.400,-0.249,0.87,-0.07500000000000001,-9.8536,7.0852,-47.06079999999999,heavy,A,11,0,0,1,0,0,0
2019-01-11 16:44:13.600,-0.333,0.8086666666666668,-0.09600000000000002,22.0974,3.5854,6.7072,heavy,A,11,0,0,1,0,0,0
2019-01-11 16:44:13.800,-0.353,0.8625,-0.1245,6.1828,1.573,11.305,heavy,A,11,0,0,1,0,0,0
2019-01-11 16:44:14.000,-0.336,0.9323333333333332,-0.156,-11.329,-1.8168,13.0364,heavy,A,11,0,0,1,0,0,0
2019-01-11 16:44:14.200,-0.2665,0.9385,-0.099,-27.6462,3.2561999999999998,25.8658,heavy,A,11,0,0,1,0,0,0
2019-01-11 16:44:14.400,-0.15,0.8673333333333333,-0.021000000000000005,-11.2804,3.8658,34.34159999999999,heavy,A,11,0,0,1,0,0,0
2019-01-11 16:44:14.600,-0.093,0.811,-0.045,25.9634,-7.1706,-4.939,heavy,A,11,0,0,1,0,0,0
2019-01-11 16:44:14.800,-0.11966666666666666,0.9176666666666667,-0.08566666666666667,14.1708,-8.1342,-16.9634,heavy,A,11,0,0,1,0,0,0
2019-01-11 16:44:15.000,-0.16349999999999998,0.7925,-0.16099999999999998,19.1218,-6.6462,-23.2196,heavy,A,11,0,0,1,0,0,0
2019-01-11 16:44:15.200,-0.22633333333333336,0.8303333333333333,-0.19633333333333336,5.9754000000000005,-1.939,-10.9268,heavy,A,11,0,0,1,0,0,0
2019-01-11 16:44:15.400,-0.2915,0.9075,-0.2025,-10.1708,-9.9512,2.695,heavy,A,11,0,0,1,0,0,0
2019-01-11 16:44:15.600,-0.26166666666666666,0.9723333333333333,-0.12666666666666668,-13.2072,-14.438999999999998,24.4514,heavy,A,11,0,0,1,0,0,0
2019-01-11 16:44:15.800,-0.21150000000000002,1.13,-0.10250000000000001,-27.292600000000004,-6.597800000000001,30.267999999999994,heavy,A,11,0,0,1,0,0,0
2019-01-11 16:44:16.000,-0.11366666666666668,1.1106666666666667,-0.016999999999999998,-2.4878,-2.6098,16.427,heavy,A,11,0,0,1,0,0,0
2019-01-11 16:44:16.200,-0.055,0.9485,-0.011,3.7681999999999993,-3.7559999999999993,0.024399999999999977,heavy,A,11,0,0,1,0,0,0
2019-01-11 16:45:56.000,-0.10099999999999999,1.056,0.107,-2.6708,-7.256,8.8416,heavy,B,34,0,0,1,0,0,0
2019-01-11 16:45:56.200,-0.132,1.2665,0.0785,33.41459999999999,13.0976,-29.280399999999997,heavy,B,34,0,0,1,0,0,0
2019-01-11 16:45:56.400,-0.2836666666666667,1.1263333333333334,-0.08133333333333333,61.9634,35.378,-49.41459999999999,heavy,B,34,0,0,1,0,0,0
2019-01-11 16:45:56.600,-0.2995,0.7569999999999999,-0.1825,2.3658,3.683,-10.817,heavy,B,34,0,0,1,0,0,0
2019-01-11 16:45:56.800,-0.31033333333333335,0.7286666666666667,-0.2596666666666667,1.9634,5.707599999999999,-2.2682,heavy,B,34,0,0,1,0,0,0
2019-01-11 16:45:57.000,-0.369,0.919,-0.2425,-17.1948,5.1342,13.4756,heavy,B,34,0,0,1,0,0,0
2019-01-11 16:45:57.200,-0.2833333333333333,0.898,-0.20199999999999999,-26.256,-20.073200000000003,37.48780000000001,heavy,B,34,0,0,1,0,0,0
2019-01-11 16:45:57.400,-0.1865,0.772,-0.03749999999999999,-30.634399999999992,43.9756,32.68300000000001,heavy,B,34,0,0,1,0,0,0
2019-01-11 16:45:57.600,-0.06899999999999999,0.952,-0.09000000000000001,10.061199999999998,-30.7318,7.4879999999999995,heavy,B,34,0,0,1,0,0,0
2019-01-11 16:45:57.800,-0.0815,0.913,-0.1105,0.2562000000000003,-15.744,-15.012200000000002,heavy,B,34,0,0,1,0,0,0
2019-01-11 16:45:58.000,-0.081,0.757,-0.08533333333333333,35.5732,6.5976,-21.817,heavy,B,34,0,0,1,0,0,0
2019-01-11 16:45:58.200,-0.20650000000000002,0.9470000000000001,-0.268,38.1582,-16.744,-18.8048,heavy,B,34,0,0,1,0,0,0
2019-01-11 16:45:58.400,-0.25566666666666665,0.8583333333333334,-0.26866666666666666,14.2924,-2.5001999999999995,-10.134,heavy,B,34,0,0,1,0,0,0
2019-01-11 16:45:58.600,-0.3285,0.8734999999999999,-0.3065,-5.7684,-9.9024,-2.5976,heavy,B,34,0,0,1,0,0,0
2019-01-11 16:45:58.800,-0.35666666666666663,0.9373333333333331,-0.25666666666666665,-21.6584,-10.378,14.072999999999999,heavy,B,34,0,0,1,0,0,0
2019-01-11 16:45:59.000,-0.3145,1.0154999999999998,-0.21000000000000002,-36.756,-6.6464,23.329199999999997,heavy,B,34,0,0,1,0,0,0
2019-01-11 16:45:59.200,-0.28200000000000003,1.2443333333333333,-0.16166666666666665,18.475599999999996,9.012,-3.4512,heavy,B,34,0,0,1,0,0,0
2019-01-11 16:45:59.400,-0.32199999999999995,1.2374999999999998,-0.3315,81.4024,20.1586,-34.95139999999999,heavy,B,34,0,0,1,0,0,0
2019-01-11 16:45:59.600,-0.3383333333333333,0.8196666666666667,-0.411,-2.7074,-5.0732,-15.439000000000002,heavy,B,34,0,0,1,0,0,0
2019-01-11 16:45:59.800,-0.34850000000000003,0.7749999999999999,-0.374,-40.744,-16.0244,21.048799999999996,heavy,B,34,0,0,1,0,0,0
2019-01-11 16:46:00.000,-0.23666666666666666,0.6786666666666666,-0.18300000000000002,-58.743599999999994,-0.8414000000000001,49.4636,heavy,B,34,0,0,1,0,0,0
2019-01-11 16:46:00.200,-0.14350000000000002,0.731,-0.16,3.4147999999999996,-0.7806,1.4024,heavy,B,34,0,0,1,0,0,0
2019-01-11 16:46:00.400,-0.15166666666666664,0.7026666666666667,-0.124,42.5,-9.792599999999997,-29.243600000000004,heavy,B,34,0,0,1,0,0,0
2019-01-11 16:46:00.600,-0.23199999999999998,0.802,-0.29100000000000004,38.573,3.061,-18.0122,heavy,B,34,0,0,1,0,0,0
2019-01-11 16:46:00.800,-0.339,0.8923333333333333,-0.288,-14.8168,-7.1464,4.3658,heavy,B,34,0,0,1,0,0,0
2019-01-11 16:46:01.000,-0.344,0.979,-0.2455,-44.2928,-12.7318,11.878,heavy,B,34,0,0,1,0,0,0
2019-01-11 16:46:01.200,-0.318,1.1196666666666666,-0.08933333333333333,-53.41460000000001,-25.621999999999996,29.390400000000007,heavy,B,34,0,0,1,0,0,0
2019-01-11 16:46:01.400,-0.28700000000000003,1.4805000000000001,0.0395,71.78040000000001,29.9632,-24.439,heavy,B,34,0,0,1,0,0,0
2019-01-11 16:46:01.600,-0.34,1.0223333333333333,-0.274,64.70739999999999,-1.1098,-33.9514,heavy,B,34,0,0,1,0,0,0
2019-01-11 16:46:01.800,-0.36650000000000005,0.769,-0.37549999999999994,-11.7316,-4.0,-2.6709999999999994,heavy,B,34,0,0,1,0,0,0
2019-01-11 16:46:02.000,-0.35533333333333333,0.7883333333333334,-0.317,-39.7074,-4.0122,19.926799999999997,heavy,B,34,0,0,1,0,0,0
2019-01-11 16:46:02.200,-0.24000000000000002,0.764,-0.1345,-59.06099999999999,5.792600000000001,43.561,heavy,B,34,0,0,1,0,0,0
2019-01-11 16:46:02.400,-0.14733333333333332,0.6513333333333333,-0.10400000000000002,19.2804,-10.5368,-17.3536,heavy,B,34,0,0,1,0,0,0
2019-01-11 16:46:02.600,-0.182,0.5965,-0.13399999999999998,61.3658,9.561,-39.0488,heavy,B,34,0,0,1,0,0,0
2019-01-11 16:46:02.800,-0.3913333333333333,0.8969999999999999,-0.3246666666666667,19.512400000000003,-1.8414000000000001,-2.8415999999999997,heavy,B,34,0,0,1,0,0,0
2019-01-11 16:46:03.000,-0.3875,0.782,-0.316,-8.195,-5.976000000000001,2.9146,heavy,B,34,0,0,1,0,0,0
2019-01-11 16:46:03.200,-0.43366666666666664,0.9710000000000001,-0.27299999999999996,-47.39,-19.439,27.768199999999997,heavy,B,34,0,0,1,0,0,0
2019-01-11 16:46:03.400,-0.27549999999999997,1.028,-0.11449999999999999,-42.5852,-14.4268,27.5,heavy,B,34,0,0,1,0,0,0
2019-01-11 16:46:03.600,-0.3496666666666666,1.3499999999999999,-0.068,39.5122,24.8294,-19.683,heavy,B,34,0,0,1,0,0,0
2019-01-11 16:46:03.800,-0.3505,0.962,-0.169,67.512,21.524399999999996,-17.4878,heavy,B,34,0,0,1,0,0,0
2019-01-11 16:46:04.000,-0.332,0.8513333333333334,-0.37766666666666665,5.7562,-14.121800000000002,-8.4514,heavy,B,34,0,0,1,0,0,0
2019-01-11 16:46:04.200,-0.31999999999999995,0.815,-0.3625,-12.670800000000002,-5.4024,10.244,heavy,B,34,0,0,1,0,0,0
2019-01-11 16:46:04.400,-0.30433333333333334,0.8633333333333334,-0.3066666666666667,-63.78059999999999,-7.0976,35.60959999999999,heavy,B,34,0,0,1,0,0,0
2019-01-11 16:46:04.600,-0.135,0.559,-0.1565,-19.061,-1.7559999999999998,19.061200000000003,heavy,B,34,0,0,1,0,0,0
2019-01-11 16:46:04.800,-0.18433333333333332,0.8856666666666667,-0.03933333333333333,1.5852000000000004,-12.7926,-15.1096,heavy,B,34,0,0,1,0,0,0
2019-01-11 16:46:05.000,-0.1275,0.4935,-0.087,67.78040000000001,22.9392,-38.5976,heavy,B,34,0,0,1,0,0,0
2019-01-11 16:46:05.200,-0.353,0.8799999999999999,-0.3213333333333333,20.366,-8.4632,-9.354,heavy,B,34,0,0,1,0,0,0
2019-01-11 16:46:05.400,-0.398,0.8744999999999999,-0.265,-29.695000000000004,-6.6584,6.4392,heavy,B,34,0,0,1,0,0,0
2019-01-11 16:46:05.600,-0.4003333333333334,1.0163333333333333,-0.20866666666666667,-47.695,-18.7318,22.9514,heavy,B,34,0,0,1,0,0,0
2019-01-11 16:46:05.800,-0.3345,1.0655000000000001,-0.046,-30.8536,-19.7928,15.5364,heavy,B,34,0,0,1,0,0,0
2019-01-11 16:46:06.000,-0.34400000000000003,1.3309999999999997,-0.042333333333333334,66.5732,43.4268,-25.0242,heavy,B,34,0,0,1,0,0,0
2019-01-11 16:46:06.200,-0.36649999999999994,0.91,-0.22249999999999998,42.4636,7.878,-12.1098,heavy,B,34,0,0,1,0,0,0
2019-01-11 16:46:06.400,-0.3363333333333333,0.8180000000000001,-0.3343333333333333,14.2804,-0.4147999999999996,-1.9511999999999994,heavy,B,34,0,0,1,0,0,0
2019-01-11 16:46:06.600,-0.35550000000000004,0.8135,-0.357,-10.3536,-19.219800000000003,-0.024399999999999623,heavy,B,34,0,0,1,0,0,0
2019-01-11 16:46:06.800,-0.35533333333333333,0.875,-0.3136666666666666,-36.32899999999999,-5.695,32.1584,heavy,B,34,0,0,1,0,0,0
2019-01-11 16:46:07.000,-0.191,0.7235,-0.14200000000000002,-32.75600000000001,-8.719600000000002,48.7562,heavy,B,34,0,0,1,0,0,0
2019-01-11 16:46:07.200,-0.13166666666666668,0.8413333333333334,-0.13833333333333334,-5.4148,6.561,-3.5366,heavy,B,34,0,0,1,0,0,0
2019-01-11 16:46:07.400,-0.1335,0.9485,-0.0605,-2.1708000000000003,-1.5609999999999995,-0.09760000000000009,heavy,B,34,0,0,1,0,0,0
2019-01-11 16:46:07.600,-0.149,0.9606666666666667,-0.060000000000000005,4.244,-0.4145999999999999,0.8413999999999999,heavy,B,34,0,0,1,0,0,0
2019-01-11 16:46:07.800,-0.122,0.9440000000000001,-0.0605,-1.7318000000000002,-9.6708,-8.9756,heavy,B,34,0,0,1,0,0,0
2019-01-11 16:46:08.000,-0.11133333333333334,0.634,-0.11233333333333333,53.9756,16.0,-32.634,heavy,B,34,0,0,1,0,0,0
2019-01-11 16:46:08.200,-0.3025,0.8515000000000001,-0.2525,43.0,-2.609800000000001,-9.9998,heavy,B,34,0,0,1,0,0,0
2019-01-11 16:46:08.400,-0.3043333333333333,0.9366666666666666,-0.38599999999999995,5.8536,1.7561999999999998,12.5976,heavy,B,34,0,0,1,0,0,0
2019-01-11 16:46:08.600,-0.261,0.9355,-0.36,-34.2438,-19.7318,28.2438,heavy,B,34,0,0,1,0,0,0
2019-01-11 16:46:08.800,-0.22666666666666668,1.1139999999999999,-0.3086666666666667,-31.3902,-21.560999999999996,26.3658,heavy,B,34,0,0,1,0,0,0
2019-01-11 16:46:09.000,-0.1545,1.0350000000000001,-0.18,-4.6462,-1.5854000000000006,11.5,heavy,B,34,0,0,1,0,0,0
2019-01-11 16:46:09.200,-0.07733333333333332,0.959,-0.15266666666666664,-7.7562,-9.5244,-8.256,heavy,B,34,0,0,1,0,0,0
2019-01-11 16:48:54.800,-0.11800000000000001,0.9685,0.0345,-2.5,-2.9269999999999996,1.427,medium,B,35,0,0,1,0,0,0
2019-01-11 16:48:55.000,-0.10300000000000001,0.9444999999999999,0.0495,2.0488,-3.0487999999999995,2.8292,medium,B,35,0,0,1,0,0,0
2019-01-11 16:48:55.200,-0.10333333333333333,1.0216666666666667,0.04833333333333333,-3.2318,-5.7682,-4.304599999999999,medium,B,35,0,0,1,0,0,0
2019-01-11 16:48:55.400,-0.22999999999999998,1.5095,-0.053500000000000006,99.9512,45.2682,-53.18280000000001,medium,B,35,0,0,1,0,0,0
2019-01-11 16:48:55.600,-0.316,0.9129999999999999,-0.2816666666666667,-0.0975999999999985,-19.0852,-25.816999999999997,medium,B,35,0,0,1,0,0,0
2019-01-11 16:48:55.800,-0.297,0.6935,-0.23099999999999998,-32.305,5.670800000000001,3.9392000000000005,medium,B,35,0,0,1,0,0,0
2019-01-11 16:48:56.000,-0.321,0.8436666666666666,-0.11633333333333333,-42.5242,4.8048,28.524400000000004,medium,B,35,0,0,1,0,0,0
2019-01-11 16:48:56.200,-0.16999999999999998,0.6819999999999999,-0.08449999999999999,-18.036800000000007,27.890199999999993,41.0364,medium,B,35,0,0,1,0,0,0
2019-01-11 16:48:56.400,-0.12166666666666666,0.941,-0.054,10.475399999999999,-28.426599999999997,-4.109399999999999,medium,B,35,0,0,1,0,0,0
2019-01-11 16:48:56.600,-0.10200000000000001,0.5585,-0.08,43.84160000000001,-5.999999999999998,-40.0,medium,B,35,0,0,1,0,0,0
2019-01-11 16:48:56.800,-0.24466666666666667,0.7806666666666667,-0.20433333333333334,37.2684,9.6952,-22.073,medium,B,35,0,0,1,0,0,0
2019-01-11 16:48:57.000,-0.378,0.9079999999999999,-0.275,-2.8049999999999997,-17.6342,1.9512,medium,B,35,0,0,1,0,0,0
2019-01-11 16:48:57.200,-0.3946666666666667,0.9543333333333334,-0.19066666666666668,-63.75600000000001,-22.1098,25.3904,medium,B,35,0,0,1,0,0,0
2019-01-11 16:48:57.400,-0.34950000000000003,1.221,0.046,-36.15840000000001,-24.426799999999997,17.1462,medium,B,35,0,0,1,0,0,0
2019-01-11 16:48:57.600,-0.38199999999999995,1.4799999999999998,-0.05933333333333333,101.97579999999999,45.6954,-25.1708,medium,B,35,0,0,1,0,0,0
2019-01-11 16:48:57.800,-0.369,0.917,-0.2555,6.7194,1.9024,-11.0608,medium,B,35,0,0,1,0,0,0
2019-01-11 16:48:58.000,-0.222,0.7176666666666667,-0.22,-60.39000000000001,-7.5854,37.39020000000001,medium,B,35,0,0,1,0,0,0
2019-01-11 16:48:58.200,-0.048,-0.032,-0.11750000000000001,50.12179999999999,6.1828,-28.975599999999996,medium,B,35,0,0,1,0,0,0
2019-01-11 16:48:58.400,-0.296,0.836,-0.25766666666666665,11.6952,-6.061200000000001,-2.2803999999999998,medium,B,35,0,0,1,0,0,0
2019-01-11 16:48:58.600,-0.36850000000000005,1.016,-0.226,-47.5122,-14.536599999999998,14.878199999999998,medium,B,35,0,0,1,0,0,0
2019-01-11 16:48:58.800,-0.2803333333333333,1.127,-0.10666666666666667,-28.427000000000003,-27.1344,34.6098,medium,B,35,0,0,1,0,0,0
2019-01-11 16:48:59.000,-0.3275,1.6205,-0.164,72.7316,31.8048,-25.1342,medium,B,35,0,0,1,0,0,0
2019-01-11 16:48:59.200,-0.373,1.0756666666666668,-0.3406666666666667,39.9268,-14.792600000000002,-44.366,medium,B,35,0,0,1,0,0,0
2019-01-11 16:48:59.400,-0.349,0.7645,-0.34550000000000003,-44.8052,-10.6098,24.1342,medium,B,35,0,0,1,0,0,0
2019-01-11 16:48:59.600,-0.18699999999999997,0.5773333333333334,-0.134,-72.5976,-7.402600000000001,44.744,medium,B,35,0,0,1,0,0,0
2019-01-11 16:48:59.800,-0.1285,0.405,-0.1185,60.2682,18.5368,-39.9998,medium,B,35,0,0,1,0,0,0
2019-01-11 16:49:00.000,-0.25500000000000006,0.7253333333333334,-0.222,50.5244,16.0486,-6.0488,medium,B,35,0,0,1,0,0,0
2019-01-11 16:49:00.200,-0.39849999999999997,0.9139999999999999,-0.3,-25.1464,-12.122,9.7928,medium,B,35,0,0,1,0,0,0
2019-01-11 16:49:00.400,-0.34400000000000003,1.07,-0.18833333333333332,-68.5732,-38.866,51.75600000000001,medium,B,35,0,0,1,0,0,0
2019-01-11 16:49:00.600,-0.281,1.588,-0.056,23.939,14.182999999999998,-9.2074,medium,B,35,0,0,1,0,0,0
2019-01-11 16:49:00.800,-0.27666666666666667,1.1693333333333331,-0.21133333333333337,69.0122,25.634000000000004,-38.31699999999999,medium,B,35,0,0,1,0,0,0
2019-01-11 16:49:01.000,-0.2885,0.8555,-0.2965,-2.4877999999999996,0.048800000000000045,-15.487799999999998,medium,B,35,0,0,1,0,0,0
2019-01-11 16:49:01.200,-0.303,0.8160000000000002,-0.291,-51.4514,-19.999999999999996,25.4024,medium,B,35,0,0,1,0,0,0
2019-01-11 16:49:01.400,-0.1345,0.5650000000000001,-0.1345,-30.0854,-11.134199999999998,30.439,medium,B,35,0,0,1,0,0,0
2019-01-11 16:49:01.600,-0.15233333333333332,0.5136666666666667,-0.10333333333333333,49.1342,13.256,-46.19500000000001,medium,B,35,0,0,1,0,0,0
2019-01-11 16:49:01.800,-0.2875,0.769,-0.21150000000000002,16.536399999999997,-10.1586,-16.0364,medium,B,35,0,0,1,0,0,0
2019-01-11 16:49:02.000,-0.40599999999999997,0.9369999999999999,-0.16233333333333333,-48.15839999999999,-15.890199999999998,22.0488,medium,B,35,0,0,1,0,0,0
2019-01-11 16:49:02.200,-0.3685,1.186,-0.0030000000000000027,-58.6462,-27.780600000000003,44.9758,medium,B,35,0,0,1,0,0,0
2019-01-11 16:49:02.400,-0.309,1.4880000000000002,0.12233333333333334,56.6828,8.7196,-28.1952,medium,B,35,0,0,1,0,0,0
2019-01-11 16:49:02.600,-0.3855,1.01,-0.121,72.9148,26.744,-36.5364,medium,B,35,0,0,1,0,0,0
2019-01-11 16:49:02.800,-0.3966666666666667,0.863,-0.27933333333333327,-11.268400000000002,3.378,-0.31700000000000017,medium,B,35,0,0,1,0,0,0
2019-01-11 16:49:03.000,-0.3415,0.8454999999999999,-0.2535,-59.01220000000001,-36.89019999999999,38.0854,medium,B,35,0,0,1,0,0,0
2019-01-11 16:49:03.200,-0.14866666666666667,0.5756666666666667,-0.074,-10.256,17.1464,32.0974,medium,B,35,0,0,1,0,0,0
2019-01-11 16:49:03.400,-0.1895,0.9755,0.004999999999999999,17.7316,-3.1222,2.5732,medium,B,35,0,0,1,0,0,0
2019-01-11 16:49:03.600,-0.13,0.7783333333333333,-0.12666666666666668,34.0244,-5.9146,-22.3294,medium,B,35,0,0,1,0,0,0
2019-01-11 16:49:03.800,-0.15499999999999997,0.5875,-0.22749999999999998,56.80499999999999,22.658400000000004,-26.292600000000004,medium,B,35,0,0,1,0,0,0
2019-01-11 16:49:04.000,-0.3626666666666667,0.8776666666666667,-0.37566666666666665,-12.866200000000001,-20.7438,-16.3048,medium,B,35,0,0,1,0,0,0
2019-01-11 16:49:04.200,-0.348,0.8654999999999999,-0.233,-45.2558,-4.439,30.4512,medium,B,35,0,0,1,0,0,0
2019-01-11 16:49:04.400,-0.3423333333333333,1.1233333333333333,-0.166,-64.64639999999999,-35.6464,36.99980000000001,medium,B,35,0,0,1,0,0,0
2019-01-11 16:49:04.600,-0.241,1.471,0.069,30.792599999999993,12.5366,-9.6828,medium,B,35,0,0,1,0,0,0
2019-01-11 16:49:04.800,-0.25833333333333336,1.123,-0.10099999999999999,59.31700000000001,23.512400000000003,-27.389999999999997,medium,B,35,0,0,1,0,0,0
2019-01-11 16:49:05.000,-0.28,0.822,-0.237,7.2438,13.609799999999998,-12.207200000000002,medium,B,35,0,0,1,0,0,0
2019-01-11 16:49:05.200,-0.2946666666666667,0.878,-0.308,-18.805,-8.4024,6.5364,medium,B,35,0,0,1,0,0,0
2019-01-11 16:49:05.400,-0.255,0.8305,-0.135,-50.878,-10.5122,15.463400000000002,medium,B,35,0,0,1,0,0,0
2019-01-11 16:49:05.600,-0.17833333333333332,0.6086666666666667,-0.11066666666666665,25.439,-7.390000000000001,1.6827999999999999,medium,B,35,0,0,1,0,0,0
2019-01-11 16:49:05.800,-0.1695,0.5135000000000001,-0.07850000000000001,55.7438,-1.0609999999999986,-23.365599999999997,medium,B,35,0,0,1,0,0,0
2019-01-11 16:49:06.000,-0.3263333333333333,0.9199999999999999,-0.288,3.3171999999999997,-7.8536,-11.829399999999998,medium,B,35,0,0,1,0,0,0
2019-01-11 16:49:06.200,-0.41500000000000004,0.925,-0.2725,-32.7318,-12.829399999999998,0.20740000000000053,medium,B,35,0,0,1,0,0,0
2019-01-11 16:49:06.400,-0.399,0.9933333333333333,-0.128,-50.012,-22.036399999999997,35.59739999999999,medium,B,35,0,0,1,0,0,0
2019-01-11 16:49:06.600,-0.312,1.2135,0.0025000000000000005,-5.487800000000002,-11.634200000000002,22.6344,medium,B,35,0,0,1,0,0,0
2019-01-11 16:49:06.800,-0.3373333333333333,1.404,-0.125,98.0608,33.5366,-33.1584,medium,B,35,0,0,1,0,0,0
2019-01-11 16:49:07.000,-0.305,0.8280000000000001,-0.228,-16.8048,19.7072,-38.8048,medium,B,35,0,0,1,0,0,0
2019-01-11 16:49:07.200,-0.31200000000000006,0.715,-0.26266666666666666,-11.6586,0.5244000000000001,5.5366,medium,B,35,0,0,1,0,0,0
2019-01-11 16:49:07.400,-0.388,0.9395,-0.2365,-35.3904,-33.9148,36.4026,medium,B,35,0,0,1,0,0,0
2019-01-11 16:49:07.600,-0.17400000000000002,0.618,-0.09033333333333332,-14.5976,6.1096,27.0608,medium,B,35,0,0,1,0,0,0
2019-01-11 16:49:07.800,-0.1845,1.0619999999999998,-0.0335,11.6222,-3.6952,-0.5488000000000003,medium,B,35,0,0,1,0,0,0
2019-01-11 16:49:08.000,-0.17800000000000002,0.9416666666666668,-0.09933333333333334,6.4756,0.0852000000000002,5.0734,medium,B,35,0,0,1,0,0,0
2019-01-11 16:49:08.200,-0.16649999999999998,0.8655,-0.128,9.439000000000002,-11.5974,-12.268199999999998,medium,B,35,0,0,1,0,0,0
2019-01-11 16:49:08.400,-0.19099999999999998,0.6056666666666667,-0.15333333333333335,26.8658,20.0366,-47.95120000000001,medium,B,35,0,0,1,0,0,0
2019-01-11 16:49:08.600,-0.347,0.896,-0.2485,7.8414,-2.1708000000000003,-1.8169999999999997,medium,B,35,0,0,1,0,0,0
2019-01-11 16:49:08.800,-0.4383333333333333,0.9603333333333334,-0.20766666666666667,-20.7684,-10.341600000000001,0.6097999999999999,medium,B,35,0,0,1,0,0,0
2019-01-11 16:49:09.000,-0.3935,0.9690000000000001,-0.14300000000000002,-26.9998,-10.5732,20.3416,medium,B,35,0,0,1,0,0,0
2019-01-11 16:49:09.200,-0.3316666666666666,1.1079999999999999,-0.07533333333333334,-22.049,-11.878,18.2562,medium,B,35,0,0,1,0,0,0
2019-01-11 16:49:09.400,-0.43,1.504,-0.1875,80.39020000000001,26.2806,-17.2314,medium,B,35,0,0,1,0,0,0
2019-01-11 16:49:09.600,-0.337,0.947,-0.26866666666666666,22.5366,3.8295999999999992,-14.731799999999998,medium,B,35,0,0,1,0,0,0
2019-01-11 16:49:09.800,-0.338,0.774,-0.3355,-24.2926,-45.18300000000001,4.7804,medium,B,35,0,0,1,0,0,0
2019-01-11 16:49:10.000,-0.26333333333333336,0.7386666666666667,-0.16166666666666665,-33.0124,-10.683,59.2318,medium,B,35,0,0,1,0,0,0
2019-01-11 16:49:10.200,-0.1385,0.6015,-0.118,10.5608,9.3534,11.4512,medium,B,35,0,0,1,0,0,0
2019-01-11 16:49:10.400,-0.14333333333333334,0.9843333333333334,-0.14466666666666664,-2.2806,-3.5,-1.9387999999999999,medium,B,35,0,0,1,0,0,0
2019-01-11 16:49:10.600,-0.13,0.623,-0.1315,2.6218000000000004,-0.10980000000000008,-50.2926,medium,B,35,0,0,1,0,0,0
2019-01-11 16:49:10.800,-0.315,0.7656666666666667,-0.1703333333333333,50.0,13.841399999999998,-32.8536,medium,B,35,0,0,1,0,0,0
2019-01-11 16:49:11.000,-0.401,0.831,-0.25849999999999995,1.4512,-3.4024,17.3658,medium,B,35,0,0,1,0,0,0
2019-01-11 16:49:11.200,-0.42300000000000004,0.9819999999999999,-0.22866666666666668,-50.183,-10.1342,16.2684,medium,B,35,0,0,1,0,0,0
2019-01-11 16:49:11.400,-0.40349999999999997,1.152,-0.106,-38.3782,-16.8172,15.5244,medium,B,35,0,0,1,0,0,0
2019-01-11 16:49:11.600,-0.45100000000000007,1.4013333333333333,-0.16666666666666666,100.012,39.061,-26.219399999999997,medium,B,35,0,0,1,0,0,0
2019-01-11 16:49:11.800,-0.38649999999999995,0.8719999999999999,-0.365,25.512399999999996,-13.1828,-4.0488,medium,B,35,0,0,1,0,0,0
2019-01-11 16:49:12.000,-0.395,0.775,-0.35233333333333333,-40.2438,-18.2318,7.085399999999998,medium,B,35,0,0,1,0,0,0
2019-01-11 16:49:12.200,-0.2675,0.765,-0.1965,-63.30499999999999,-4.194800000000001,59.5364,medium,B,35,0,0,1,0,0,0
2019-01-11 16:49:12.400,-0.12333333333333334,0.6423333333333333,-0.09266666666666667,15.512,7.585400000000002,16.0732,medium,B,35,0,0,1,0,0,0
2019-01-11 16:49:12.600,-0.14350000000000002,1.0510000000000002,-0.09999999999999999,-2.6342,-9.6708,6.1464,medium,B,35,0,0,1,0,0,0
2019-01-11 16:49:12.800,-0.14300000000000002,0.9570000000000002,-0.10166666666666668,2.3902000000000005,-1.2803999999999995,-2.6339999999999995,medium,B,35,0,0,1,0,0,0
2019-01-11 16:49:13.000,-0.1335,0.8680000000000001,-0.11,3.4025999999999996,-11.9876,-22.695,medium,B,35,0,0,1,0,0,0
2019-01-11 16:49:13.200,-0.156,0.5616666666666666,-0.13,49.817,25.122,-30.463599999999996,medium,B,35,0,0,1,0,0,0
2019-01-11 16:49:13.400,-0.355,0.9610000000000001,-0.258,3.6586,7.634,-17.9022,medium,B,35,0,0,1,0,0,0
2019-01-11 16:49:13.600,-0.3833333333333333,0.9423333333333334,-0.232,-40.573,-14.426600000000002,11.792800000000002,medium,B,35,0,0,1,0,0,0
2019-01-11 16:49:13.800,-0.3595,1.0844999999999998,-0.1435,-60.84140000000001,-33.7562,32.9514,medium,B,35,0,0,1,0,0,0
2019-01-11 16:49:14.000,-0.3453333333333333,1.3796666666666668,0.08266666666666668,38.7196,4.8658,-9.0244,medium,B,35,0,0,1,0,0,0
2019-01-11 16:49:14.200,-0.33499999999999996,1.183,-0.1875,81.19519999999999,47.7926,-20.0244,medium,B,35,0,0,1,0,0,0
2019-01-11 16:49:14.400,-0.28099999999999997,0.762,-0.2826666666666666,-8.3658,7.3902,-12.378200000000001,medium,B,35,0,0,1,0,0,0
2019-01-11 16:49:14.600,-0.271,0.7224999999999999,-0.2985,3.4146,6.389999999999999,0.48780000000000034,medium,B,35,0,0,1,0,0,0
2019-01-11 16:49:14.800,-0.322,0.9226666666666666,-0.3363333333333333,-13.0488,-29.207399999999996,10.878,medium,B,35,0,0,1,0,0,0
2019-01-11 16:49:15.000,-0.196,0.988,-0.23900000000000002,-70.134,3.5120000000000005,86.2928,medium,B,35,0,0,1,0,0,0
2019-01-11 16:49:15.200,-0.09333333333333334,0.38133333333333336,-0.16666666666666666,47.1832,-8.5244,-72.26820000000001,medium,B,35,0,0,1,0,0,0
2019-01-11 16:49:15.400,-0.186,0.668,-0.24,39.91479999999999,2.1464,-25.9146,medium,B,35,0,0,1,0,0,0
2019-01-11 16:49:15.600,-0.34900000000000003,0.8646666666666668,-0.21933333333333335,-32.4998,-17.3416,13.268400000000003,medium,B,35,0,0,1,0,0,0
2019-01-11 16:49:15.800,-0.455,1.339,-0.166,-68.89020000000002,-30.878000000000004,30.4512,medium,B,35,0,0,1,0,0,0
2019-01-11 16:49:16.000,-0.302,1.1873333333333334,-0.021333333333333333,6.5854,-8.8412,-7.755800000000001,medium,B,35,0,0,1,0,0,0
2019-01-11 16:49:16.200,-0.1985,0.8314999999999999,0.033,-13.3412,-18.1586,11.744,medium,B,35,0,0,1,0,0,0
2019-01-11 16:49:16.400,-0.16399999999999998,1.002,0.001,-1.22,-6.585,8.537,medium,B,35,0,0,1,0,0,0
2019-01-11 16:53:53.800,-0.066,0.935,0.027000000000000003,6.866,-2.1222000000000003,1.6827999999999999,medium,A,15,0,0,1,0,0,0
2019-01-11 16:53:54.000,-0.07933333333333333,0.9836666666666668,0.016666666666666666,4.9392,-0.15840000000000004,-0.4513999999999999,medium,A,15,0,0,1,0,0,0
2019-01-11 16:53:54.200,-0.075,0.915,0.012,-1.1464,-1.5974,4.0973999999999995,medium,A,15,0,0,1,0,0,0
2019-01-11 16:53:54.400,-0.10133333333333334,1.127,0.0013333333333333333,8.7074,-0.9143999999999999,-17.5244,medium,A,15,0,0,1,0,0,0
2019-01-11 16:53:54.600,-0.23249999999999998,1.315,-0.07450000000000001,36.35379999999999,14.890199999999998,-52.4634,medium,A,15,0,0,1,0,0,0
2019-01-11 16:53:54.800,-0.3293333333333333,0.9239999999999999,-0.10266666666666668,-16.1342,10.0852,-26.585199999999997,medium,A,15,0,0,1,0,0,0
2019-01-11 16:53:55.000,-0.3235,0.7749999999999999,-0.067,-29.426799999999997,8.5978,17.2074,medium,A,15,0,0,1,0,0,0
2019-01-11 16:53:55.200,-0.24666666666666667,0.7553333333333333,0.0006666666666666696,-3.3903999999999996,2.2442,32.5732,medium,A,15,0,0,1,0,0,0
2019-01-11 16:53:55.400,-0.1755,0.7184999999999999,-0.095,26.280600000000003,-9.7806,-0.5852000000000004,medium,A,15,0,0,1,0,0,0
2019-01-11 16:53:55.600,-0.21066666666666667,0.7673333333333333,-0.11333333333333333,27.927,-2.6828000000000003,-17.634,medium,A,15,0,0,1,0,0,0
2019-01-11 16:53:55.800,-0.264,0.81,-0.15899999999999997,6.5732,-5.219600000000001,-8.8536,medium,A,15,0,0,1,0,0,0
2019-01-11 16:53:56.000,-0.3,0.9066666666666667,-0.15366666666666665,-8.5,-20.7684,9.939,medium,A,15,0,0,1,0,0,0
2019-01-11 16:53:56.200,-0.27449999999999997,0.9920000000000001,-0.0825,-19.1464,-14.0612,44.31699999999999,medium,A,15,0,0,1,0,0,0
2019-01-11 16:53:56.400,-0.17133333333333334,1.2449999999999999,-0.061666666666666675,-27.878000000000004,-3.2438000000000002,20.9148,medium,A,15,0,0,1,0,0,0
2019-01-11 16:53:56.600,-0.201,1.4805,-0.021,50.51220000000001,6.0854,-50.805,medium,A,15,0,0,1,0,0,0
2019-01-11 16:53:56.800,-0.31,1.0056666666666667,-0.126,10.121999999999998,15.646400000000003,-36.48780000000001,medium,A,15,0,0,1,0,0,0
2019-01-11 16:53:57.000,-0.3185,0.7645,-0.11,-28.1342,5.4024,7.2806,medium,A,15,0,0,1,0,0,0
2019-01-11 16:53:57.200,-0.254,0.7886666666666667,-0.09666666666666668,-14.7928,-7.8048,44.9268,medium,A,15,0,0,1,0,0,0
2019-01-11 16:53:57.400,-0.14850000000000002,0.6815,-0.0635,15.938999999999998,-7.2928,11.902399999999998,medium,A,15,0,0,1,0,0,0
2019-01-11 16:53:57.600,-0.167,0.722,-0.127,22.5488,-8.2926,-28.780600000000003,medium,A,15,0,0,1,0,0,0
2019-01-11 16:53:57.800,-0.2185,0.7859999999999999,-0.17600000000000002,17.939,-4.317,-6.6586,medium,A,15,0,0,1,0,0,0
2019-01-11 16:53:58.000,-0.26933333333333337,0.8833333333333334,-0.14633333333333334,-16.4634,-9.3292,8.378200000000001,medium,A,15,0,0,1,0,0,0
2019-01-11 16:53:58.200,-0.25,1.0265,-0.09,-30.2562,-14.512200000000002,44.0244,medium,A,15,0,0,1,0,0,0
2019-01-11 16:53:58.400,-0.17066666666666666,1.3693333333333335,-0.07933333333333334,-11.8292,-7.305,4.561200000000001,medium,A,15,0,0,1,0,0,0
2019-01-11 16:53:58.600,-0.2355,1.3319999999999999,0.0115,32.744,7.133999999999999,-59.634,medium,A,15,0,0,1,0,0,0
2019-01-11 16:53:58.800,-0.324,0.9319999999999999,-0.06566666666666666,4.2684,19.133999999999997,-23.9756,medium,A,15,0,0,1,0,0,0
2019-01-11 16:53:59.000,-0.345,0.7965,-0.098,-16.2196,-8.7926,0.951400000000001,medium,A,15,0,0,1,0,0,0
2019-01-11 16:53:59.200,-0.32266666666666666,0.8266666666666668,-0.03833333333333333,-17.7192,-0.3537999999999997,32.7194,medium,A,15,0,0,1,0,0,0
2019-01-11 16:53:59.400,-0.198,0.7565,-0.032,17.5242,3.4634,36.6708,medium,A,15,0,0,1,0,0,0
2019-01-11 16:53:59.600,-0.16733333333333333,0.7136666666666667,-0.13066666666666668,24.122,-6.2926,-32.183,medium,A,15,0,0,1,0,0,0
2019-01-11 16:53:59.800,-0.224,0.766,-0.1795,16.2804,4.1588,-25.329200000000004,medium,A,15,0,0,1,0,0,0
2019-01-11 16:54:00.000,-0.33499999999999996,0.8376666666666668,-0.16333333333333333,-16.6462,-6.195,-7.9636,medium,A,15,0,0,1,0,0,0
2019-01-11 16:54:00.200,-0.353,0.9515,-0.104,-9.4514,-13.463400000000002,38.805,medium,A,15,0,0,1,0,0,0
2019-01-11 16:54:00.400,-0.24333333333333332,1.1566666666666665,-0.12066666666666666,-14.878000000000004,-6.2196,49.19500000000001,medium,A,15,0,0,1,0,0,0
2019-01-11 16:54:00.600,-0.19899999999999998,1.504,-0.15250000000000002,18.6952,-2.9878,-37.780199999999994,medium,A,15,0,0,1,0,0,0
2019-01-11 16:54:00.800,-0.28200000000000003,1.0746666666666667,-0.13133333333333333,31.3658,16.4878,-40.5122,medium,A,15,0,0,1,0,0,0
2019-01-11 16:54:01.000,-0.34099999999999997,0.8265,-0.16199999999999998,-26.036399999999997,6.9634,-13.231800000000002,medium,A,15,0,0,1,0,0,0
2019-01-11 16:54:01.200,-0.3116666666666667,0.7823333333333332,-0.108,-32.8172,8.622,18.8904,medium,A,15,0,0,1,0,0,0
2019-01-11 16:54:01.400,-0.266,0.8125,-0.0635,1.1464000000000003,-5.0244,41.3172,medium,A,15,0,0,1,0,0,0
2019-01-11 16:54:01.600,-0.16933333333333334,0.6233333333333334,-0.08333333333333333,31.0608,-14.170600000000002,-22.805,medium,A,15,0,0,1,0,0,0
2019-01-11 16:54:01.800,-0.2495,0.7905,-0.148,30.475600000000004,-2.1586000000000003,-19.658399999999997,medium,A,15,0,0,1,0,0,0
2019-01-11 16:54:02.000,-0.31566666666666665,0.8463333333333334,-0.211,-1.5851999999999997,-9.4636,6.8294,medium,A,15,0,0,1,0,0,0
2019-01-11 16:54:02.200,-0.297,0.9085000000000001,-0.16849999999999998,-30.085400000000003,-21.2682,34.7318,medium,A,15,0,0,1,0,0,0
2019-01-11 16:54:02.400,-0.17400000000000002,1.16,-0.08700000000000001,-37.0,-10.7318,50.87820000000001,medium,A,15,0,0,1,0,0,0
2019-01-11 16:54:02.600,-0.14250000000000002,1.5470000000000002,-0.0185,28.0486,-1.7805999999999997,-42.8778,medium,A,15,0,0,1,0,0,0
2019-01-11 16:54:02.800,-0.2463333333333333,1.0676666666666665,-0.08366666666666667,31.6098,21.061,-39.59740000000001,medium,A,15,0,0,1,0,0,0
2019-01-11 16:54:03.000,-0.31899999999999995,0.846,-0.132,-5.1098,3.3538000000000006,-22.951200000000004,medium,A,15,0,0,1,0,0,0
2019-01-11 16:54:03.200,-0.35800000000000004,0.8403333333333333,-0.127,-16.4268,5.683,12.6706,medium,A,15,0,0,1,0,0,0
2019-01-11 16:54:03.400,-0.2795,0.8405,-0.10099999999999999,-9.5,0.2562000000000001,48.18300000000001,medium,A,15,0,0,1,0,0,0
2019-01-11 16:54:03.600,-0.16366666666666665,0.6693333333333333,-0.14366666666666666,19.7316,-10.2928,1.5731999999999993,medium,A,15,0,0,1,0,0,0
2019-01-11 16:54:03.800,-0.1845,0.7334999999999999,-0.1565,22.756400000000003,-6.3538,-33.3416,medium,A,15,0,0,1,0,0,0
2019-01-11 16:54:04.000,-0.27499999999999997,0.8136666666666668,-0.2213333333333333,19.5486,-1.0977999999999999,-10.695199999999998,medium,A,15,0,0,1,0,0,0
2019-01-11 16:54:04.200,-0.3325,0.8540000000000001,-0.26,-16.3536,-14.6464,12.8536,medium,A,15,0,0,1,0,0,0
2019-01-11 16:54:04.400,-0.26666666666666666,0.969,-0.17,-26.877999999999997,-15.7072,49.6344,medium,A,15,0,0,1,0,0,0
2019-01-11 16:54:04.600,-0.14350000000000002,1.2254999999999998,-0.1135,-10.2438,-3.4025999999999996,30.6098,medium,A,15,0,0,1,0,0,0
2019-01-11 16:54:04.800,-0.18066666666666664,1.461,-0.168,32.695,7.5242,-57.5124,medium,A,15,0,0,1,0,0,0
2019-01-11 16:54:05.000,-0.274,0.9495,-0.16349999999999998,2.475600000000001,11.633999999999999,-43.7926,medium,A,15,0,0,1,0,0,0
2019-01-11 16:54:05.200,-0.3426666666666667,0.7996666666666666,-0.14233333333333334,-30.7806,4.2924,-1.1583999999999999,medium,A,15,0,0,1,0,0,0
2019-01-11 16:54:05.400,-0.3135,0.8079999999999999,-0.075,-10.8172,0.8170000000000002,37.061,medium,A,15,0,0,1,0,0,0
2019-01-11 16:54:05.600,-0.18533333333333335,0.7083333333333334,-0.106,16.463599999999996,-2.3902000000000005,29.914800000000003,medium,A,15,0,0,1,0,0,0
2019-01-11 16:54:05.800,-0.1815,0.6965,-0.155,26.268399999999996,-14.670600000000002,-32.3172,medium,A,15,0,0,1,0,0,0
2019-01-11 16:54:06.000,-0.2463333333333333,0.7603333333333334,-0.21266666666666667,12.2682,-6.2562,-22.1584,medium,A,15,0,0,1,0,0,0
2019-01-11 16:54:06.200,-0.3255,0.8265,-0.20049999999999998,-18.2074,-7.366,10.9512,medium,A,15,0,0,1,0,0,0
2019-01-11 16:54:06.400,-0.292,0.993,-0.11066666666666668,-30.682799999999997,-11.695,58.7564,medium,A,15,0,0,1,0,0,0
2019-01-11 16:54:06.600,-0.1255,1.275,-0.05,-34.20720000000001,-6.939,36.7558,medium,A,15,0,0,1,0,0,0
2019-01-11 16:54:06.800,-0.12366666666666666,1.4056666666666666,0.084,43.64639999999999,4.256400000000001,-59.65840000000001,medium,A,15,0,0,1,0,0,0
2019-01-11 16:54:07.000,-0.2715,0.9675,-0.0645,46.6464,20.378,-40.68299999999999,medium,A,15,0,0,1,0,0,0
2019-01-11 16:54:07.200,-0.3376666666666666,0.8616666666666667,-0.19799999999999998,-1.6586000000000005,2.5973999999999995,-12.305000000000001,medium,A,15,0,0,1,0,0,0
2019-01-11 16:54:07.400,-0.33699999999999997,0.843,-0.213,-13.1464,-3.7072000000000003,23.2928,medium,A,15,0,0,1,0,0,0
2019-01-11 16:54:07.600,-0.2273333333333333,0.7559999999999999,-0.166,-17.4266,9.304799999999998,45.7194,medium,A,15,0,0,1,0,0,0
2019-01-11 16:54:07.800,-0.1555,0.673,-0.22499999999999998,5.2316,-12.8168,-15.341399999999998,medium,A,15,0,0,1,0,0,0
