time,acc_x,acc_y,acc_z,gyr_x,gyr_y,gyr_z,category,participant,set,labelBenchPress,labelDeadlift,labelOHP,labelRow,labelSquat,labelRest,pca_1,pca_2,pca_3
2019-01-11 16:08:05.200,0.0134728448416,0.977141482752,-0.0709940965662,-1.89054648113,2.44144321091,0.938800174771,heavy,B,30,1,0,0,0,0,0,-0.313801808389,-0.0769966135596,0.0728078617627
2019-01-11 16:08:05.400,0.010048199451,0.977181445203,-0.063133858876,3.35434364384,0.751914466194,-2.38706312582,heavy,B,30,1,0,0,0,0,0,-0.313867135182,-0.0730900336187,0.069903988431
2019-01-11 16:08:05.600,-0.00832453638631,0.96217420813,-0.0728238926646,4.57399170025,-1.90066023803,-1.27046433256,heavy,B,30,1,0,0,0,0,0,-0.310538358939,-0.082407938377,0.0630280443782
2019-01-11 16:08:05.800,-0.0256358178401,0.957898560602,-0.0879427030034,1.13533030079,-3.76318360796,1.78096933473,heavy,B,30,1,0,0,0,0,0,-0.310928182569,-0.0942799526607,0.0580502257245
2019-01-11 16:08:06.000,-0.0224954158685,0.968995160704,-0.0952097977366,0.354874528119,-1.55275975493,-1.70277613501,heavy,B,30,1,0,0,0,0,0,-0.314600155192,-0.0975750536547,0.0616538750695
2019-01-11 16:08:06.200,-0.0210030481609,0.939459251751,-0.115388431362,9.60556897874,4.54003395612,-14.369615697,heavy,B,30,1,0,0,0,0,0,-0.304847372132,-0.110101454787,0.0661167903045
2019-01-11 16:08:06.400,-0.0657271485662,0.852149768061,-0.170292148472,20.0452738282,8.39279822323,-24.1904381292,heavy,B,30,1,0,0,0,0,0,-0.28019397848,-0.152651849359,0.0544575163283
2019-01-11 16:08:06.600,-0.154506506807,0.810432003222,-0.225597059684,12.9290359585,4.03047866512,-16.6790599299,heavy,B,30,1,0,0,0,0,0,-0.274854861971,-0.201234584441,0.0238337517565
2019-01-11 16:08:06.800,-0.222927268691,0.915610851415,-0.216930601254,-10.0623243042,-5.47088216684,2.93714694717,heavy,B,30,1,0,0,0,0,0,-0.316232205079,-0.204032268881,-0.00553718303349
2019-01-11 16:08:07.000,-0.221219634134,1.09507729455,-0.14412125187,-20.5955063971,-9.65466401243,12.0057469792,heavy,B,30,1,0,0,0,0,0,-0.375285393831,-0.155197631298,-0.0126429630537
2019-01-11 16:08:07.200,-0.182305717262,1.17025751259,-0.0916280307131,-2.13799156391,-3.72918312123,0.635974808211,heavy,B,30,1,0,0,0,0,0,-0.396096160811,-0.11566514687,-0.00148506139232
2019-01-11 16:08:07.400,-0.177751158656,1.08903954741,-0.124549472248,21.8619640007,4.30989470686,-12.7699675363,heavy,B,30,1,0,0,0,0,0,-0.368750791358,-0.137026385206,0.0055180146726
2019-01-11 16:08:07.600,-0.216286563581,0.971046066393,-0.200254238737,18.3831926513,3.84171647231,-6.44634508548,heavy,B,30,1,0,0,0,0,0,-0.333816524201,-0.191598180651,-0.00145354702596
2019-01-11 16:08:07.800,-0.22977723764,0.914606022621,-0.224408986189,-8.78532615903,-4.41949943513,14.4043817106,heavy,B,30,1,0,0,0,0,0,-0.316646964052,-0.209599281679,-0.00714702010829
2019-01-11 16:08:08.000,-0.169770380974,0.890838855494,-0.170696987867,-26.5741155791,-10.2336324958,25.8685238573,heavy,B,30,1,0,0,0,0,0,-0.302469287239,-0.168756095821,0.0055967012307
2019-01-11 16:08:08.200,-0.0770002642175,0.862870115726,-0.0973013165869,-19.4652782753,-7.83449917723,17.719118367,heavy,B,30,1,0,0,0,0,0,-0.283425710561,-0.111253400373,0.0305202067008
2019-01-11 16:08:08.400,-0.0272967435431,0.872748913132,-0.0570198192757,-3.75386106179,-1.89510827496,2.70526697526,heavy,B,30,1,0,0,0,0,0,-0.281510993931,-0.0791496366635,0.0458577192028
2019-01-11 16:08:08.600,-0.0374174933114,0.940255827889,-0.0443870636689,3.24971694499,0.603862782775,-4.32812613207,heavy,B,30,1,0,0,0,0,0,-0.30486623393,-0.0712927491189,0.042456762766
2019-01-11 16:08:08.800,-0.0610665381036,0.993260259336,-0.0359294398104,3.20118626802,-1.3033751443,-2.23707377439,heavy,B,30,1,0,0,0,0,0,-0.32460867032,-0.0686120355845,0.0325163591587
2019-01-11 16:08:09.000,-0.0614653048296,0.982946807951,-0.0314960426943,2.35020492655,-3.90981567927,2.48495356199,heavy,B,30,1,0,0,0,0,0,-0.321056162543,-0.0664724270446,0.0306938389
2019-01-11 16:08:09.200,-0.046957201338,0.964354302368,-0.0363479883979,0.293767257307,-3.94728552224,4.71884118032,heavy,B,30,1,0,0,0,0,0,-0.313679037825,-0.0674590127615,0.0372243426591
2019-01-11 16:08:09.400,-0.039019073808,0.973255069109,-0.0433571420868,0.370893960772,-0.424950040012,0.705726464895,heavy,B,30,1,0,0,0,0,0,-0.316191506509,-0.0698563790818,0.0428973832659
2019-01-11 16:08:09.600,-0.0454194939589,0.934750491272,-0.0576684579274,10.5446381073,5.08800190053,-9.84625926706,heavy,B,30,1,0,0,0,0,0,-0.303913955302,-0.0805986227765,0.0420612298214
2019-01-11 16:08:09.800,-0.0715363229294,0.815671261071,-0.103554820049,24.4307810315,8.27260416765,-18.0147396212,heavy,B,30,1,0,0,0,0,0,-0.266699031743,-0.115872224646,0.0354100049158
2019-01-11 16:08:10.000,-0.122079984661,0.762774041509,-0.176987654501,21.344391147,5.35864014038,-12.6291680921,heavy,B,30,1,0,0,0,0,0,-0.25477330584,-0.16904815702,0.025817767257
2019-01-11 16:08:10.200,-0.178141886182,0.919932539075,-0.22407360863,-1.77629148325,-1.60794480296,2.41134783535,heavy,B,30,1,0,0,0,0,0,-0.314056970136,-0.200613398096,0.0170568203904
2019-01-11 16:08:10.400,-0.204304194748,1.16928298751,-0.207165414638,-17.1991790818,-5.79860852816,8.60176383083,heavy,B,30,1,0,0,0,0,0,-0.400489977954,-0.186766919802,0.0129644528702
2019-01-11 16:08:10.600,-0.196535580057,1.24581461165,-0.169166233348,-3.28760165784,-3.89687496204,-2.32932508963,heavy,B,30,1,0,0,0,0,0,-0.424744419593,-0.160900178444,0.0130013236329
2019-01-11 16:08:10.800,-0.193671536806,1.09667613727,-0.182361777393,20.2202790468,-0.476920710153,-14.1348326267,heavy,B,30,1,0,0,0,0,0,-0.374059042693,-0.173331241303,0.0113848163108
2019-01-11 16:08:11.000,-0.217662439638,0.934168294456,-0.241524405589,16.9781709783,-1.54986077718,-7.09890095071,heavy,B,30,1,0,0,0,0,0,-0.322428705214,-0.217269756082,0.00509363366969
2019-01-11 16:08:11.200,-0.230405869785,0.908757503945,-0.261692638262,-13.6631015769,-6.35320520525,13.8414208078,heavy,B,30,1,0,0,0,0,0,-0.315645375186,-0.231664117443,0.000212314703485
2019-01-11 16:08:11.400,-0.184722025102,0.927983431663,-0.192399468312,-34.8879812516,-9.10203327349,25.2496856949,heavy,B,30,1,0,0,0,0,0,-0.316890647784,-0.182574662905,0.00499539676919
2019-01-11 16:08:11.600,-0.0996306938077,0.873916842285,-0.0848186060188,-23.8996939142,-7.27823746657,16.8297402369,heavy,B,30,1,0,0,0,0,0,-0.288796766469,-0.107297409538,0.0178209900118
2019-01-11 16:08:11.800,-0.0427766725412,0.815043565513,-0.0204487625352,0.017611676055,-3.89930565699,2.73007224881,heavy,B,30,1,0,0,0,0,0,-0.262344470413,-0.0623544084289,0.0280949479589
2019-01-11 16:08:12.000,-0.0426578191351,0.869148584303,-0.0142437751889,8.39120560544,-1.79028846031,-1.16509353736,heavy,B,30,1,0,0,0,0,0,-0.280449040173,-0.0570153489434,0.0301016074296
2019-01-11 16:08:12.200,-0.0603514816577,0.985755136486,-0.0250595084444,2.28561143647,-0.270581456692,2.4790922323,heavy,B,30,1,0,0,0,0,0,-0.32176015285,-0.0623496373652,0.0299240533555
2019-01-11 16:08:12.400,-0.0551048351094,1.02194045434,-0.030205509998,0.389012230877,1.05218204879,2.67305130677,heavy,B,30,1,0,0,0,0,0,-0.333724190032,-0.0632325966782,0.0351398503598
2019-01-11 16:08:12.600,-0.0374338993044,0.966848262389,-0.0401067067922,4.68112794999,-0.125519442537,-0.587943736274,heavy,B,30,1,0,0,0,0,0,-0.313772786021,-0.0679623684662,0.0428663470297
2019-01-11 16:08:12.800,-0.0370217680829,0.939436327886,-0.053265777347,2.5741654701,-3.99571392253,0.00651385445707,heavy,B,30,1,0,0,0,0,0,-0.304781340539,-0.0765393657772,0.0444255688054
2019-01-11 16:08:13.000,-0.050978818666,0.980147957932,-0.0510721368766,-3.78196644182,-5.21910205298,2.21934494649,heavy,B,30,1,0,0,0,0,0,-0.319749039737,-0.0761839694827,0.0392389980451
2019-01-11 16:08:13.200,-0.0570018735259,0.98399043182,-0.0436156194104,2.35315488707,0.475610423882,-3.78179951515,heavy,B,30,1,0,0,0,0,0,-0.321314203397,-0.0726766320274,0.0355655890316
2019-01-11 16:08:13.400,-0.0620833064909,0.880189768062,-0.0720701409241,20.2103995727,8.24171220434,-16.703877156,heavy,B,30,1,0,0,0,0,0,-0.287064308809,-0.0936880623009,0.035690998468
2019-01-11 16:08:13.600,-0.101511872683,0.775734035734,-0.143771843756,25.2000035879,8.6473162949,-21.5750046938,heavy,B,30,1,0,0,0,0,0,-0.256611350485,-0.145729726164,0.0288383977391
2019-01-11 16:08:13.800,-0.183604420852,0.83208885015,-0.201942530608,5.26058232705,0.255922302342,-10.5204393681,heavy,B,30,1,0,0,0,0,0,-0.284135275611,-0.191528925261,0.00593732037195
2019-01-11 16:08:14.000,-0.260753718834,1.03449604201,-0.190752154645,-17.3019156459,-8.06294318534,4.87778304874,heavy,B,30,1,0,0,0,0,0,-0.359124838172,-0.19109713084,-0.0229374238915
2019-01-11 16:08:14.200,-0.275259127394,1.18048333621,-0.128901041829,-15.2079391254,-8.77640512738,8.52017613971,heavy,B,30,1,0,0,0,0,0,-0.408331513711,-0.152613401636,-0.0357464438071
2019-01-11 16:08:14.400,-0.228876247022,1.12441299445,-0.0897033818206,7.65659517336,-4.37300623662,-0.543792447714,heavy,B,30,1,0,0,0,0,0,-0.384318074469,-0.12402270128,-0.0246532859893
2019-01-11 16:08:14.600,-0.187762668593,0.957442967595,-0.119400385989,24.8008764626,-1.84923518624,-9.60486030747,heavy,B,30,1,0,0,0,0,0,-0.324845512017,-0.140198409288,-0.00666880955551
2019-01-11 16:08:14.800,-0.207145977368,0.877849599805,-0.195926693426,20.6517667163,-3.07423154404,-7.89093191664,heavy,B,30,1,0,0,0,0,0,-0.301346300598,-0.190779531204,-0.00282626394872
2019-01-11 16:08:15.000,-0.261429518632,0.93227799795,-0.257567194131,1.43463355966,-4.53558259845,4.5148363549,heavy,B,30,1,0,0,0,0,0,-0.32597025685,-0.233874804283,-0.0124351684897
2019-01-11 16:08:15.200,-0.270091052434,0.984531342925,-0.25511403839,-18.2200275581,-3.87386582943,18.8383525824,heavy,B,30,1,0,0,0,0,0,-0.344527349125,-0.231857967373,-0.0157375087409
2019-01-11 16:08:15.400,-0.194892359787,0.933217926923,-0.187300346205,-26.4002787452,-2.42316054836,24.5276466091,heavy,B,30,1,0,0,0,0,0,-0.31931764862,-0.181119086573,9.70450738385e-05
2019-01-11 16:08:15.600,-0.0873709412791,0.849472868177,-0.100799377505,-18.8965463097,-1.95375096313,17.7871635983,heavy,B,30,1,0,0,0,0,0,-0.279825993242,-0.115360298181,0.0259803938918
2019-01-11 16:08:15.800,-0.0256570701578,0.854385963869,-0.0468653897261,-4.05472259441,-2.10189736947,5.91106824186,heavy,B,30,1,0,0,0,0,0,-0.274915732311,-0.073542172662,0.0433552380638
2019-01-11 16:08:16.000,-0.0261005633888,0.944797583508,-0.0315207860333,3.44477985676,-1.61486250877,-0.545414579922,heavy,B,30,1,0,0,0,0,0,-0.305159598697,-0.0617771779324,0.0449010479167
2019-01-11 16:08:16.200,-0.0432408075786,1.01378858875,-0.0236382520275,0.586358672686,-0.54352827788,-0.269323720342,heavy,B,30,1,0,0,0,0,0,-0.329809494622,-0.0577048174967,0.0387018328921
2019-01-11 16:08:16.400,-0.0422851708105,1.00116183344,-0.0107651775716,-1.18525163827,-0.364488080527,-0.0227469023601,heavy,B,30,1,0,0,0,0,0,-0.325158407661,-0.0503977074325,0.0355380251297
2019-01-11 16:08:16.600,-0.0348872098004,0.954075661681,-0.0132601427768,3.58203758906,-2.01865831861,-1.66399400686,heavy,B,30,1,0,0,0,0,0,-0.308600500184,-0.0522746459884,0.0373848015597
2019-01-11 16:08:16.800,-0.041436187218,0.946667305471,-0.0352121058072,5.28157881187,-4.0515636769,-0.204626971244,heavy,B,30,1,0,0,0,0,0,-0.307148281494,-0.0665278703987,0.0389760725419
2019-01-11 16:08:17.000,-0.0540941535775,0.983398897508,-0.0462160780948,-0.579009592878,-3.49498954116,3.32706891506,heavy,B,30,1,0,0,0,0,0,-0.320969579084,-0.0737757330242,0.0371074480297
2019-01-11 16:08:17.200,-0.0563998748042,0.992234686418,-0.0372597477815,-0.753687824867,0.593943143811,-0.573022195458,heavy,B,30,1,0,0,0,0,0,-0.323936987535,-0.0685382351664,0.03459914422
2019-01-11 16:08:17.400,-0.057820163143,0.913386077012,-0.0509572140342,13.3696777633,5.15766989367,-13.1269021929,heavy,B,30,1,0,0,0,0,0,-0.297520290616,-0.0794940572108,0.0341259408513
2019-01-11 16:08:17.600,-0.0847410625935,0.800539291623,-0.115482743157,25.2612449304,5.94745409427,-19.9033647367,heavy,B,30,1,0,0,0,0,0,-0.26294849814,-0.1256199069,0.0313882452269
2019-01-11 16:08:17.800,-0.142749168203,0.798337411162,-0.182990103084,14.7358973704,1.96888082474,-10.5570607848,heavy,B,30,1,0,0,0,0,0,-0.268754735116,-0.174822773427,0.0191270473343
2019-01-11 16:08:18.000,-0.204835696725,0.965444432303,-0.184541210798,-9.22045215281,-3.82584138216,3.40970181716,heavy,B,30,1,0,0,0,0,0,-0.330833701002,-0.180398911303,-0.00195189963296
2019-01-11 16:08:18.200,-0.239490625562,1.15339247688,-0.126811954731,-18.091092041,-7.58230183934,3.47357384912,heavy,B,30,1,0,0,0,0,0,-0.396129431681,-0.146207340105,-0.0214846136735
2019-01-11 16:08:18.400,-0.2434689515,1.1585919098,-0.0840592881431,-2.82326471835,-7.3098072855,-9.26913280101,heavy,B,30,1,0,0,0,0,0,-0.397061703202,-0.121926656802,-0.0312949611875
2019-01-11 16:08:18.600,-0.242832074819,0.989499539262,-0.10230614334,15.9417941865,-3.8042520684,-15.9614999496,heavy,B,30,1,0,0,0,0,0,-0.339965842733,-0.138267486599,-0.0341925355575
2019-01-11 16:08:18.800,-0.259485123492,0.862125518332,-0.155736638647,17.0298207198,-0.262938008393,-6.06496043343,heavy,B,30,1,0,0,0,0,0,-0.2994602399,-0.176444752866,-0.0364246550847
2019-01-11 16:08:19.000,-0.278020253948,0.902521932885,-0.194052467409,2.01444809623,0.11635909271,11.230098118,heavy,B,30,1,0,0,0,0,0,-0.315759895285,-0.200402145761,-0.0355410777843
2019-01-11 16:08:19.200,-0.256760140294,0.989142821202,-0.191858552681,-13.3363309126,-2.38580927005,21.8906516082,heavy,B,30,1,0,0,0,0,0,-0.343434632999,-0.192527280877,-0.0231977305392
2019-01-11 16:08:19.400,-0.180281174252,0.963794883987,-0.150864422963,-17.9844196909,-4.06585531389,22.0560104853,heavy,B,30,1,0,0,0,0,0,-0.327521991847,-0.156525537275,0.0007581667292
2019-01-11 16:08:19.600,-0.089122729712,0.870217943872,-0.091350242603,-11.7459295001,-2.59835886855,15.9284260997,heavy,B,30,1,0,0,0,0,0,-0.286717303471,-0.109574534858,0.0246227470596
2019-01-11 16:08:19.800,-0.0396592891417,0.859862714419,-0.0478955065948,-1.43074528825,-0.159589427723,8.04792712829,heavy,B,30,1,0,0,0,0,0,-0.277945825861,-0.0763152908998,0.0376591870851
2019-01-11 16:08:20.000,-0.041232166417,0.948456968096,-0.0438954528055,4.77713995886,-0.10327621602,1.8519397364,heavy,B,30,1,0,0,0,0,0,-0.307949383497,-0.0714228584552,0.0410231866112
2019-01-11 16:08:20.200,-0.0545158583497,1.01257159415,-0.0636672703777,3.72787580415,-2.23072252654,-0.150030005028,heavy,B,30,1,0,0,0,0,0,-0.331266702611,-0.0831340937461,0.042577170437
2019-01-11 16:08:20.400,-0.0491477866739,0.991738083423,-0.0716197409572,0.0172552328434,-3.61322207483,1.07660713809,heavy,B,30,1,0,0,0,0,0,-0.323979845701,-0.0875403052893,0.0454552704342
2019-01-11 16:08:20.600,-0.0361131846881,0.954825760326,-0.0592817863747,-0.354532808981,-3.03145806378,1.6088765347,heavy,B,30,1,0,0,0,0,0,-0.310090567891,-0.079333692135,0.0467336440608
2019-01-11 16:08:20.800,-0.0368298208474,0.963009755658,-0.0497337922253,2.1094542896,-2.21285882204,-0.0533071284554,heavy,B,30,1,0,0,0,0,0,-0.312673733674,-0.0736213323199,0.0448970757697
2019-01-11 16:08:21.000,-0.0472979066871,0.985556011694,-0.05612004488,2.58482669392,-2.77775808032,-1.10395069116,heavy,B,30,1,0,0,0,0,0,-0.32133629007,-0.0783892560482,0.0427557364461
2019-01-11 16:08:21.200,-0.0506527647252,0.979900373785,-0.0637545616342,0.290073779951,-3.83952671052,0.34949190927,heavy,B,30,1,0,0,0,0,0,-0.31990286239,-0.0835895978925,0.0424686005835
2019-01-11 16:08:21.400,-0.0466979297863,0.96265658507,-0.0597832580545,-0.555666955615,-3.46296009324,1.73539717621,heavy,B,30,1,0,0,0,0,0,-0.313642383041,-0.0811500499209,0.0424352454586
2019-01-11 16:08:21.600,-0.0464870304721,0.9616956409,-0.0548496899605,1.85570234125,-1.77676639312,0.517612807539,heavy,B,30,1,0,0,0,0,0,-0.313159026332,-0.078262388049,0.0415690986903
2019-01-11 16:08:21.800,-0.0469644351877,0.966620041221,-0.0624440757025,3.6312874343,-1.26602715971,-1.03267802055,heavy,B,30,1,0,0,0,0,0,-0.315031603038,-0.0826385752911,0.0434192515237
2019-01-11 16:08:22.000,-0.0343169372216,0.964018016003,-0.0764024298441,1.49065330798,-3.10992431477,-0.00191121142028,heavy,B,30,1,0,0,0,0,0,-0.313446354504,-0.0887740313743,0.0519362749038
2019-01-11 16:10:08.400,-0.0120179089709,0.96338346428,-0.0850605773368,-1.04661689055,-4.5821921007,0.493343711912,heavy,A,1,1,0,0,0,0,0,-0.311598275166,-0.090112181157,0.0637320789625
2019-01-11 16:10:08.600,-0.00480069195803,0.954983840324,-0.0943850440275,2.33153444103,-2.86265691929,-4.79736839358,heavy,A,1,1,0,0,0,0,0,-0.308334425355,-0.0946437772186,0.0689421232797
2019-01-11 16:10:08.800,-0.0277764648616,0.906276495854,-0.118689041656,10.976051221,-0.910776158321,-12.6118336754,heavy,A,1,1,0,0,0,0,0,-0.294239135018,-0.114398530036,0.0621490804149
2019-01-11 16:10:09.000,-0.0661038114553,0.843891000013,-0.153673138022,15.5458746194,-4.73041809938,-12.222146233,heavy,A,1,1,0,0,0,0,0,-0.277092502642,-0.143489421059,0.0496691766171
2019-01-11 16:10:09.200,-0.0947696113139,0.868117692284,-0.17566101032,8.86233668032,-13.0983329136,-0.923729541577,heavy,A,1,1,0,0,0,0,0,-0.288296585907,-0.160442958517,0.0421444247753
2019-01-11 16:10:09.400,-0.108466873241,1.01485759095,-0.169805721618,-3.65739481064,-15.8699506515,8.66059938186,heavy,A,1,1,0,0,0,0,0,-0.339154172843,-0.154362250931,0.0410908965677
2019-01-11 16:10:09.600,-0.120878224677,1.1622951254,-0.147592096285,-9.16573509038,-7.17394136508,4.01880248504,heavy,A,1,1,0,0,0,0,0,-0.389666456264,-0.138326266296,0.0377583651203
2019-01-11 16:10:09.800,-0.140332767956,1.16627556984,-0.131526768489,-3.33152540138,4.89231036389,-9.0860700545,heavy,A,1,1,0,0,0,0,0,-0.392183234673,-0.131880020069,0.0262371191925
2019-01-11 16:10:10.000,-0.157943862197,1.04795111155,-0.130028858332,4.22925957887,8.51483596942,-12.9288947095,heavy,A,1,1,0,0,0,0,0,-0.353443843312,-0.137882036399,0.0125292690927
2019-01-11 16:10:10.200,-0.158710523351,0.947146209391,-0.133874462893,3.1523294432,3.95289956116,-0.773692725367,heavy,A,1,1,0,0,0,0,0,-0.319462326011,-0.14366508505,0.00766254991374
2019-01-11 16:10:10.400,-0.13499987926,0.922505436163,-0.132653778168,-4.33129864284,0.6123934734,15.5986417806,heavy,A,1,1,0,0,0,0,0,-0.30918935803,-0.139755635505,0.0161153527154
2019-01-11 16:10:10.600,-0.0891766085551,0.916693512682,-0.125843126525,-8.2757036613,1.42371206232,21.928059963,heavy,A,1,1,0,0,0,0,0,-0.30327293441,-0.128208682244,0.0346906539845
2019-01-11 16:10:10.800,-0.0330623682547,0.901583044065,-0.118279184073,-4.83913651159,0.713931540975,16.0703533176,heavy,A,1,1,0,0,0,0,0,-0.293250438589,-0.114940236448,0.0579527046236
2019-01-11 16:10:11.000,0.0113773345182,0.91535821015,-0.114983174313,1.79279146032,-3.11783715073,4.22138998788,heavy,A,1,1,0,0,0,0,0,-0.294061397728,-0.105288274422,0.0786261849949
2019-01-11 16:10:11.200,0.020181298287,0.941146466971,-0.124134938223,8.25061092707,-4.62384134842,-8.01516617117,heavy,A,1,1,0,0,0,0,0,-0.302214908543,-0.108441571492,0.0865405129893
2019-01-11 16:10:11.400,-0.0130415509039,0.901095310943,-0.153406325826,13.8910911852,-3.06848328349,-15.3414202861,heavy,A,1,1,0,0,0,0,0,-0.292052887714,-0.13249489234,0.0764487461374
2019-01-11 16:10:11.600,-0.0658234245713,0.821967817656,-0.193031651675,14.8682022981,-5.30600894285,-11.9968939861,heavy,A,1,1,0,0,0,0,0,-0.270581967011,-0.167183591382,0.0573421515302
2019-01-11 16:10:11.800,-0.103507923331,0.855648520527,-0.213052619648,6.71074547433,-12.2263341323,-0.045287531182,heavy,A,1,1,0,0,0,0,0,-0.285708639614,-0.184133458129,0.0456807108683
2019-01-11 16:10:12.000,-0.112549948253,1.0444560939,-0.195441572857,-4.96972739943,-13.6129218767,6.96582588868,heavy,A,1,1,0,0,0,0,0,-0.350144391596,-0.168996312387,0.0463554050579
2019-01-11 16:10:12.200,-0.113858118092,1.20105612135,-0.164765222777,-6.90731143142,-3.82828711804,-1.11505802509,heavy,A,1,1,0,0,0,0,0,-0.402598732381,-0.145879641596,0.046922502917
2019-01-11 16:10:12.400,-0.136509018346,1.14814617524,-0.164889889458,3.16401602919,7.12099423834,-14.8291397969,heavy,A,1,1,0,0,0,0,0,-0.386450701176,-0.151398804787,0.0349396131806
2019-01-11 16:10:12.600,-0.178325958891,0.972096016388,-0.201575185739,9.76189140003,7.4897598506,-14.5412542552,heavy,A,1,1,0,0,0,0,0,-0.331091879518,-0.185744925774,0.0156720345793
2019-01-11 16:10:12.800,-0.200938183962,0.888139569015,-0.23025622223,0.0530432440415,1.04210020174,3.41659460375,heavy,A,1,1,0,0,0,0,0,-0.305316457665,-0.209068286531,0.00661581153175
2019-01-11 16:10:13.000,-0.170279460175,0.929294201942,-0.211119378711,-16.5009827743,-0.36059433886,20.970536006,heavy,A,1,1,0,0,0,0,0,-0.316412316192,-0.191166735597,0.0169843783815
2019-01-11 16:10:13.200,-0.0970441925904,0.946144316121,-0.156280140721,-20.0237108563,3.99051527508,22.1023525737,heavy,A,1,1,0,0,0,0,0,-0.314731748068,-0.146115163357,0.0386121721683
2019-01-11 16:10:13.400,-0.027865565437,0.884756335664,-0.107417692822,-7.32622894585,4.03408070088,11.5952817729,heavy,A,1,1,0,0,0,0,0,-0.28686691993,-0.108151789319,0.0569863952757
2019-01-11 16:10:13.600,0.00180437983821,0.865755725634,-0.0860637280755,5.69844675699,-3.19455799966,3.11322757821,heavy,A,1,1,0,0,0,0,0,-0.277326386919,-0.0916715036103,0.0656685975532
2019-01-11 16:10:13.800,-0.00490140778344,0.945919950672,-0.0884002148914,8.08018714355,-8.44875164061,-1.24530311027,heavy,A,1,1,0,0,0,0,0,-0.305089357842,-0.0916762303194,0.0673986553111
2019-01-11 16:10:14.000,-0.0261143114596,0.987698172088,-0.112891029407,6.48268395964,-5.65171739925,-7.78696155831,heavy,A,1,1,0,0,0,0,0,-0.321605538909,-0.108089581031,0.0653427541534
2019-01-11 16:10:14.200,-0.0522878509136,0.882349066295,-0.159477070745,9.76114991758,-1.96535243188,-14.3071407427,heavy,A,1,1,0,0,0,0,0,-0.28915498276,-0.143149045316,0.0588210740463
2019-01-11 16:10:14.400,-0.0864019228068,0.76779041848,-0.203833162093,13.1912121473,-6.06767974112,-11.4979518309,heavy,A,1,1,0,0,0,0,0,-0.254209572266,-0.178718808758,0.0475755806661
2019-01-11 16:10:14.600,-0.12411155151,0.855660441312,-0.207919098731,7.40921160152,-13.281372731,-0.571376510441,heavy,A,1,1,0,0,0,0,0,-0.287304636835,-0.184617354332,0.0352767898089
2019-01-11 16:10:14.800,-0.151623753303,1.10204367699,-0.169487924367,-4.28201741779,-11.466722787,4.93191754064,heavy,A,1,1,0,0,0,0,0,-0.372296977061,-0.15843730688,0.0259318305672
2019-01-11 16:10:15.000,-0.164252894612,1.23481976319,-0.13538345024,-8.60075388154,0.38513720963,-1.51183839109,heavy,A,1,1,0,0,0,0,0,-0.417560835633,-0.135914024424,0.0192493558127
2019-01-11 16:10:15.200,-0.173222733839,1.12043864332,-0.146824121547,-0.776962194387,9.15373765581,-9.79612660613,heavy,A,1,1,0,0,0,0,0,-0.379733059427,-0.147793894613,0.0126174106531
2019-01-11 16:10:15.400,-0.186705060591,0.931576714588,-0.188937319486,8.42362108978,5.84520901577,-7.68670937109,heavy,A,1,1,0,0,0,0,0,-0.31777900767,-0.181110110197,0.00684040730425
2019-01-11 16:10:15.600,-0.191487586966,0.88332964338,-0.213803031657,6.14249791469,-1.66147827924,4.3083497231,heavy,A,1,1,0,0,0,0,0,-0.302458240135,-0.198177913943,0.00736934453817
2019-01-11 16:10:15.800,-0.163796512375,0.953375666114,-0.199096890056,-7.12878390462,-0.815130212346,16.8997984544,heavy,A,1,1,0,0,0,0,0,-0.323664116212,-0.182415669662,0.0191285793596
2019-01-11 16:10:16.000,-0.0996386096056,0.980237083031,-0.161540232917,-18.2866465399,6.76120380836,22.492796032,heavy,A,1,1,0,0,0,0,0,-0.326613404584,-0.148476184831,0.0404299016438
2019-01-11 16:10:16.200,-0.0273314881223,0.92683786945,-0.122952478926,-16.0837514651,8.43073550344,18.0838730937,heavy,A,1,1,0,0,0,0,0,-0.301533900428,-0.115536521284,0.0621355275351
2019-01-11 16:10:16.400,0.0166388805582,0.895099741074,-0.0903626994811,-3.03844194695,0.1408408302,6.24116486045,heavy,A,1,1,0,0,0,0,0,-0.28621042148,-0.0905252956263,0.0742166434562
2019-01-11 16:10:16.600,0.0227857755672,0.934145984763,-0.0684254613975,7.75550356613,-8.1270142883,-3.40145392581,heavy,A,1,1,0,0,0,0,0,-0.298311104204,-0.0757248676549,0.0749317596666
2019-01-11 16:10:16.800,0.0127379723316,0.982453518788,-0.0658769562534,7.6868893986,-7.89461975898,-2.60012001606,heavy,A,1,1,0,0,0,0,0,-0.315463870152,-0.0743269225995,0.072240430031
2019-01-11 16:10:17.000,0.00732199680096,0.986977848478,-0.0832878687327,2.25595294439,-3.02811181312,2.61471344209,heavy,A,1,1,0,0,0,0,0,-0.317913383978,-0.0850821692439,0.0734522602287
2019-01-11 16:10:17.200,0.000916021170187,0.956130024936,-0.111559950345,2.76406757887,-1.2125142468,-1.7318621147,heavy,A,1,1,0,0,0,0,0,-0.308654480864,-0.103668357224,0.0753612301705
2019-01-11 16:10:17.400,-0.0239485181126,0.900011172568,-0.14541946246,10.4781942016,-3.31190226606,-14.8230520976,heavy,A,1,1,0,0,0,0,0,-0.2924348035,-0.129637405204,0.0694719853056
2019-01-11 16:10:17.600,-0.0654370740481,0.83309013783,-0.181847571933,15.1194669759,-6.36461103296,-18.4811137737,heavy,A,1,1,0,0,0,0,0,-0.274042348557,-0.160231427789,0.055729253506
2019-01-11 16:10:17.800,-0.102322167521,0.831197047221,-0.205732341548,9.57990582903,-9.64413386728,-4.69612537311,heavy,A,1,1,0,0,0,0,0,-0.277116108991,-0.180441929667,0.0436348589865
2019-01-11 16:10:18.000,-0.123510778601,0.959532712911,-0.19943303917,-0.882387239398,-11.6687676539,9.05032769666,heavy,A,1,1,0,0,0,0,0,-0.322339356469,-0.175984002925,0.0382271216743
2019-01-11 16:10:18.200,-0.139290307631,1.12997801459,-0.170961949015,-7.04213704975,-7.69793843947,4.3622107783,heavy,A,1,1,0,0,0,0,0,-0.380789992725,-0.156188158303,0.0330925162033
2019-01-11 16:10:18.400,-0.158768840901,1.16050011532,-0.150962215759,-6.70091088256,2.68158664108,-10.8663791109,heavy,A,1,1,0,0,0,0,0,-0.392254075034,-0.146517289503,0.0217152703399
2019-01-11 16:10:18.600,-0.175099136048,1.01729795711,-0.154607318604,-3.10537422178,10.491419524,-15.6113432456,heavy,A,1,1,0,0,0,0,0,-0.345127216195,-0.155973666901,0.00825018887574
2019-01-11 16:10:18.800,-0.182559127226,0.876939648028,-0.165769250932,1.16034185335,7.57586431454,-6.25601903947,heavy,A,1,1,0,0,0,0,0,-0.2984237577,-0.168504948203,0.000367982504283
2019-01-11 16:10:19.000,-0.188429902994,0.887503790152,-0.164894885802,3.20148582435,-1.37921075558,4.09937725756,heavy,A,1,1,0,0,0,0,0,-0.302476958314,-0.168869042206,-0.00202661692707
2019-01-11 16:10:19.200,-0.191638542564,0.979919432769,-0.151851847859,-1.05697630424,-4.64170185716,9.9588178061,heavy,A,1,1,0,0,0,0,0,-0.333802405878,-0.158751316348,-0.0020818264678
2019-01-11 16:10:19.400,-0.168286604525,0.999804222265,-0.133923599876,-9.81550582196,0.640103949133,16.7566711289,heavy,A,1,1,0,0,0,0,0,-0.338244420658,-0.143450290018,0.00487129816379
2019-01-11 16:10:19.600,-0.103348721707,0.930879168873,-0.112950053368,-12.9253278009,5.82707370246,22.4999340474,heavy,A,1,1,0,0,0,0,0,-0.308993599965,-0.122407442237,0.0258582636808
2019-01-11 16:10:19.800,-0.0257282370562,0.879520299921,-0.0945200956604,-4.53793587996,3.73510279644,17.1947693908,heavy,A,1,1,0,0,0,0,0,-0.284592026518,-0.100480758534,0.0549162616473
2019-01-11 16:10:20.000,0.0163731346486,0.8997784881,-0.0896917759771,6.41272753594,-2.89574245428,2.95348716232,heavy,A,1,1,0,0,0,0,0,-0.287721674235,-0.0902394633471,0.0748229135954
2019-01-11 16:10:20.200,0.0122187925299,0.946738971354,-0.0968882347188,7.64562970646,-7.13550577969,-4.8274671708,heavy,A,1,1,0,0,0,0,0,-0.304137432145,-0.093704649629,0.0770981521413
2019-01-11 16:10:20.400,-0.00574053395452,0.971671204227,-0.102162849851,1.83180849759,-6.39413862357,-1.8520575658,heavy,A,1,1,0,0,0,0,0,-0.314264402587,-0.098873691761,0.070983867967
2019-01-11 16:10:20.600,-0.0140608203743,0.961566742931,-0.108054910269,2.41393829861,-3.38265558595,-2.22483916535,heavy,A,1,1,0,0,0,0,0,-0.311667478281,-0.103990395849,0.0680659057572
2019-01-11 16:10:20.800,-0.0281930890845,0.906541918773,-0.137836950212,12.198849233,-2.66521202547,-13.0116835423,heavy,A,1,1,0,0,0,0,0,-0.294810177209,-0.12571592973,0.0662839906384
2019-01-11 16:10:21.000,-0.0696912950289,0.828755983329,-0.193190001803,18.1425447704,-7.25183117353,-19.2844577112,heavy,A,1,1,0,0,0,0,0,-0.27317306628,-0.167788118916,0.0562938784767
2019-01-11 16:10:21.200,-0.127246690807,0.825676278054,-0.231322969405,10.4263386028,-14.7546924562,-8.00143463192,heavy,A,1,1,0,0,0,0,0,-0.277926312316,-0.199887695305,0.0378325863263
2019-01-11 16:10:21.400,-0.169912965274,0.969323929412,-0.212283437179,-3.60261140935,-16.8482380082,7.76975134009,heavy,A,1,1,0,0,0,0,0,-0.329861309144,-0.191021013975,0.0204073805451
2019-01-11 16:10:21.600,-0.187135139158,1.15916336525,-0.155683769129,-10.1201075718,-7.59282362051,6.41414222909,heavy,A,1,1,0,0,0,0,0,-0.394340613976,-0.154262999744,0.00931749379523
2019-01-11 16:10:21.800,-0.195802177333,1.19727367224,-0.121106641692,-5.85288761912,7.00839598743,-9.30376441943,heavy,A,1,1,0,0,0,0,0,-0.40709143217,-0.133977689048,0.000258597896981
2019-01-11 16:10:22.000,-0.210370710001,1.04241971004,-0.137599743676,1.85620810883,13.4630363657,-16.3597200944,heavy,A,1,1,0,0,0,0,0,-0.356137831403,-0.15112936325,-0.00986393305159
2019-01-11 16:10:22.200,-0.222945222088,0.876256813,-0.179381886357,6.1922896879,6.74796534781,-5.199174114,heavy,A,1,1,0,0,0,0,0,-0.301848635329,-0.18335916329,-0.0146306906318
2019-01-11 16:10:22.400,-0.216875549495,0.864092718424,-0.207981126758,5.17068397532,-3.62347902128,9.95068375737,heavy,A,1,1,0,0,0,0,0,-0.297936355047,-0.199692820827,-0.00653411414819
2019-01-11 16:10:22.600,-0.187638996493,0.954194815507,-0.208796483459,-1.00623493898,-6.2736454428,15.8828571077,heavy,A,1,1,0,0,0,0,0,-0.326114510873,-0.192274060846,0.0109131029316
2019-01-11 16:10:22.800,-0.142376103351,0.990747957699,-0.183991942071,-9.30554012367,-1.3078027053,16.8744625264,heavy,A,1,1,0,0,0,0,0,-0.334201079691,-0.168738857563,0.0272245645174
2019-01-11 16:10:23.000,-0.0873270885228,0.937975842404,-0.141934619859,-12.6409917617,3.17663370336,19.8387502178,heavy,A,1,1,0,0,0,0,0,-0.310746846042,-0.13649979511,0.0399240222882
2019-01-11 16:10:23.200,-0.0274184437041,0.889690241787,-0.105465072893,-6.64279596692,3.10364899721,19.4296057304,heavy,A,1,1,0,0,0,0,0,-0.288461576615,-0.106813400072,0.0569109783101
2019-01-11 16:10:23.400,0.0247685239523,0.906733916568,-0.100747502005,2.7684035467,0.938965892097,9.50967459749,heavy,A,1,1,0,0,0,0,0,-0.28967865472,-0.0949360351131,0.0810854011127
2019-01-11 16:10:23.600,0.0529376792374,0.952120552362,-0.120014963086,5.30488797865,-0.957681040408,-2.11284139708,heavy,A,1,1,0,0,0,0,0,-0.303132261573,-0.100061564738,0.100724781522
2019-01-11 16:10:23.800,0.0535790909237,0.976405480046,-0.122682917884,0.114120028302,-2.77914494836,-4.1486014477,heavy,A,1,1,0,0,0,0,0,-0.31141405591,-0.10066899351,0.102532281454
2019-01-11 16:10:24.000,0.0394938994959,0.978313942658,-0.0945411986109,-3.43702519576,-3.71096758884,0.19525565375,heavy,A,1,1,0,0,0,0,0,-0.312602759859,-0.0864750772403,0.0897376151914
2019-01-11 16:10:24.200,0.0241509621519,0.971813271277,-0.0746532735056,-0.304156381046,-2.12749342144,-0.00143426528689,heavy,A,1,1,0,0,0,0,0,-0.311179833341,-0.0776450702988,0.0782792083536
2019-01-11 16:10:24.400,0.0126692644186,0.961367680143,-0.0913255166145,3.14744503088,0.136623454859,-3.43919845392,heavy,A,1,1,0,0,0,0,0,-0.308960298832,-0.0896671034201,0.0765267696688
2019-01-11 16:10:24.600,0.0103507488578,0.960400140107,-0.104597349733,1.31358116439,-0.530805982487,-0.161850263846,heavy,A,1,1,0,0,0,0,0,-0.309162135764,-0.097838145759,0.0781893359224
2019-01-11 16:10:24.800,0.0225157238487,0.974519148878,-0.0650567287804,0.54680559897,-2.65869958168,5.99228550502,heavy,A,1,1,0,0,0,0,0,-0.312006913507,-0.0722500776412,0.0755035657426
2019-01-11 16:12:05.200,0.0338180193778,0.961595878248,-0.00818758826078,9.00977439475,-0.836510099034,-1.74232248545,heavy,B,31,1,0,0,0,0,0,-0.305247306388,-0.0376086584912,0.0680643234772
2019-01-11 16:12:05.400,0.0052251935009,0.880382083503,-0.019465615301,20.1567480945,4.35070457538,-23.6317930886,heavy,B,31,1,0,0,0,0,0,-0.280250512001,-0.0517081004986,0.0546224498732
2019-01-11 16:12:05.600,-0.0833757160724,0.792938146703,-0.102278929711,18.4025618282,4.65580636123,-34.2880514759,heavy,B,31,1,0,0,0,0,0,-0.259980313997,-0.117816630404,0.0285179310027
2019-01-11 16:12:05.800,-0.192682691635,0.829990768491,-0.154805291198,1.66779511695,-3.45584531527,-16.6554080721,heavy,B,31,1,0,0,0,0,0,-0.283082609672,-0.165563959553,-0.00882417775693
2019-01-11 16:12:06.000,-0.253502576543,1.00885258588,-0.107664636687,-13.0148146622,-11.4348896101,9.82526925999,heavy,B,31,1,0,0,0,0,0,-0.347823562689,-0.142276836322,-0.0391405379428
2019-01-11 16:12:06.200,-0.244067799006,1.16891078265,-0.0211584411514,-10.4270298373,-9.74206778072,13.4645394995,heavy,B,31,1,0,0,0,0,0,-0.399208194659,-0.0848547997556,-0.0458226360166
2019-01-11 16:12:06.400,-0.215480984229,1.15900668547,0.000438854850986,4.83402051383,-1.21538609543,-6.29055687273,heavy,B,31,1,0,0,0,0,0,-0.39279153929,-0.0677990698993,-0.0368424874316
2019-01-11 16:12:06.600,-0.225639249162,1.02299324391,-0.0560951489421,15.7718690824,3.49478796498,-19.6458257778,heavy,B,31,1,0,0,0,0,0,-0.348774177875,-0.107094322701,-0.0348661048504
2019-01-11 16:12:06.800,-0.26538006256,0.919040349749,-0.115565487464,11.4816726288,0.219986699788,-7.33063888536,heavy,B,31,1,0,0,0,0,0,-0.31832977608,-0.151966371404,-0.04542611502
2019-01-11 16:12:07.000,-0.27238346683,0.911951200394,-0.118113688591,-5.32331683865,-5.792824335,18.0231881865,heavy,B,31,1,0,0,0,0,0,-0.316750727469,-0.154748813611,-0.0498951180183
2019-01-11 16:12:07.200,-0.210626601615,0.93778304564,-0.0681782481519,-21.853686055,-8.56071315094,32.2278151961,heavy,B,31,1,0,0,0,0,0,-0.319319440927,-0.114150722147,-0.0329846676993
2019-01-11 16:12:07.400,-0.112267330548,0.931347813282,-0.00414553090918,-22.8777387793,-6.40247440501,25.2506978485,heavy,B,31,1,0,0,0,0,0,-0.307399373051,-0.0603540788183,-0.00290908456453
2019-01-11 16:12:07.600,-0.0404580562087,0.890337049216,0.0303265474128,-3.54833042474,-0.268258674996,3.69088900945,heavy,B,31,1,0,0,0,0,0,-0.286490011726,-0.0296611373695,0.0214867948896
2019-01-11 16:12:07.800,-0.0335428306395,0.837907159809,0.00289049310231,20.5715883496,6.60735219085,-18.546045346,heavy,B,31,1,0,0,0,0,0,-0.268561157805,-0.0464894955694,0.0299513910208
2019-01-11 16:12:08.000,-0.0905084252104,0.811634396736,-0.0700455242888,25.4161626657,8.52921626764,-27.2258023101,heavy,B,31,1,0,0,0,0,0,-0.266095278815,-0.0995854594576,0.0194397981784
2019-01-11 16:12:08.200,-0.184135507904,0.869613997116,-0.115450557359,6.81034050585,2.72413800191,-16.6751556741,heavy,B,31,1,0,0,0,0,0,-0.294815683851,-0.139763818632,-0.0113177951547
2019-01-11 16:12:08.400,-0.270443732338,1.02066580126,-0.0815811353841,-11.723050972,-5.30963941456,2.01651609473,heavy,B,31,1,0,0,0,0,0,-0.352595254751,-0.129352783068,-0.0517386845907
2019-01-11 16:12:08.600,-0.306303770074,1.16105538395,-0.0153585250813,-7.47054720387,-6.81514809704,9.30988685104,heavy,B,31,1,0,0,0,0,0,-0.401571328221,-0.0921319222632,-0.0753850150501
2019-01-11 16:12:08.800,-0.285158826732,1.1634831243,-0.0135085871281,12.7796744077,-0.646844774828,-0.401021482482,heavy,B,31,1,0,0,0,0,0,-0.400400604967,-0.08761248006,-0.0646524973877
2019-01-11 16:12:09.000,-0.247412525423,1.03159305131,-0.0967462523663,21.9950892834,4.76658283105,-10.2441842177,heavy,B,31,1,0,0,0,0,0,-0.354436161733,-0.134322469722,-0.0350642811941
2019-01-11 16:12:09.200,-0.231634768947,0.901924323822,-0.177657703971,6.21891079878,1.60956126707,-1.04549541707,heavy,B,31,1,0,0,0,0,0,-0.311241366774,-0.183080252568,-0.0177347420192
2019-01-11 16:12:09.400,-0.221276394621,0.882835540739,-0.164528418728,-20.0497741983,-7.53879810647,22.9101229638,heavy,B,31,1,0,0,0,0,0,-0.303850226707,-0.174088749593,-0.0189990218735
2019-01-11 16:12:09.600,-0.167831477376,0.934443495602,-0.0653607205687,-30.4660665211,-12.1162700664,35.8161383174,heavy,B,31,1,0,0,0,0,0,-0.314625882973,-0.105380000245,-0.0150309949951
2019-01-11 16:12:09.800,-0.069757175146,0.926197643271,0.0252527944988,-14.0541781854,-5.84219914571,20.2049014283,heavy,B,31,1,0,0,0,0,0,-0.301324695856,-0.036329977096,0.0102031916054
2019-01-11 16:12:10.000,0.00183339863639,0.805816824192,0.0268368757827,13.4537421931,5.04880152925,-10.882226868,heavy,B,31,1,0,0,0,0,0,-0.254231689397,-0.0275350104885,0.0384607330648
2019-01-11 16:12:10.200,-0.0239694595362,0.694802456133,-0.0475027603064,25.0021742624,8.35039730333,-27.9988160978,heavy,B,31,1,0,0,0,0,0,-0.220407752157,-0.0790812138776,0.0386542078644
2019-01-11 16:12:10.400,-0.134018629769,0.770952211523,-0.107885173754,11.2055187836,0.638435749909,-19.1847421201,heavy,B,31,1,0,0,0,0,0,-0.256973258825,-0.13029262252,0.0050195221064
2019-01-11 16:12:10.600,-0.24111206881,1.03135990117,-0.0852127834884,-9.05413819331,-8.46539593721,-0.901976415827,heavy,B,31,1,0,0,0,0,0,-0.353833257474,-0.126317470886,-0.0369225194974
2019-01-11 16:12:10.800,-0.274348644371,1.24417674917,-0.00816494993578,-12.0306696321,-8.69440254194,5.69973175503,heavy,B,31,1,0,0,0,0,0,-0.42693832119,-0.0798008823117,-0.0585623514398
2019-01-11 16:12:11.000,-0.243310199029,1.21182394848,0.0318052345504,2.52402166005,-1.44891244035,-1.37278116412,heavy,B,31,1,0,0,0,0,0,-0.412295762506,-0.0523569193534,-0.0539313008858
2019-01-11 16:12:11.200,-0.212026097177,1.0149998194,-0.0119177628661,15.3605323688,3.94003780478,-9.57033933232,heavy,B,31,1,0,0,0,0,0,-0.343894237176,-0.0792329137731,-0.0390728351946
2019-01-11 16:12:11.400,-0.224493188688,0.887954312044,-0.0938351610945,13.87026447,2.37029845347,-9.27532793784,heavy,B,31,1,0,0,0,0,0,-0.30383916082,-0.133415272385,-0.0331115477044
2019-01-11 16:12:11.600,-0.262808513687,0.913124582762,-0.136807786522,1.75193596551,-3.35190890917,1.23925625035,heavy,B,31,1,0,0,0,0,0,-0.316710334077,-0.164081930419,-0.0406340937389
2019-01-11 16:12:11.800,-0.270113032865,0.976073149391,-0.109330955372,-12.0333019204,-8.00775261102,18.1908680896,heavy,B,31,1,0,0,0,0,0,-0.338141882261,-0.147064187059,-0.048008578848
2019-01-11 16:12:12.000,-0.20847734567,0.975347967591,-0.0386812610729,-19.1445797837,-8.11247229501,29.800957917,heavy,B,31,1,0,0,0,0,0,-0.331143633407,-0.0953366761252,-0.0364262743696
2019-01-11 16:12:12.200,-0.100900290411,0.917373456372,0.0188749742233,-11.1487257384,-2.82816468773,21.1459223945,heavy,B,31,1,0,0,0,0,0,-0.301061381495,-0.0455534276042,-0.00274310011598
2019-01-11 16:12:12.400,-0.0220975111539,0.829875331015,0.0133046314079,10.2076842873,4.30706544106,-6.19964858399,heavy,B,31,1,0,0,0,0,0,-0.264739868777,-0.0386391432161,0.0315533185238
2019-01-11 16:12:12.600,-0.038753411673,0.750094083748,-0.0569821231037,24.8699696376,6.31400617702,-27.3876168017,heavy,B,31,1,0,0,0,0,0,-0.240611013435,-0.0853300224926,0.036823060316
2019-01-11 16:12:12.800,-0.145188355777,0.784610259909,-0.12568611832,14.8660792453,0.2683501777,-21.2364587006,heavy,B,31,1,0,0,0,0,0,-0.262925897606,-0.142192748936,0.00485316553047
2019-01-11 16:12:13.000,-0.259757043714,0.996251712057,-0.118215497943,-8.09857833428,-7.43715418597,1.52203942651,heavy,B,31,1,0,0,0,0,0,-0.344271310356,-0.149894078986,-0.0398093467939
2019-01-11 16:12:13.200,-0.299701727625,1.22583510876,-0.0458259642101,-14.4685726813,-7.99188617707,11.5930072557,heavy,B,31,1,0,0,0,0,0,-0.423763167341,-0.1066315128,-0.0628822055
2019-01-11 16:12:13.400,-0.263908480896,1.22562834808,-0.00147463289248,2.62623896507,-1.39179014435,-0.407316788699,heavy,B,31,1,0,0,0,0,0,-0.419487076072,-0.0748220384799,-0.0552072816801
2019-01-11 16:12:13.600,-0.226832465658,1.00670820251,-0.042457901531,18.5141893608,3.94887174276,-14.1981370634,heavy,B,31,1,0,0,0,0,0,-0.34301456463,-0.0998945989974,-0.0391608124105
2019-01-11 16:12:13.800,-0.241939307103,0.851274866695,-0.119390574864,12.9707269471,2.46580098341,-9.16545974279,heavy,B,31,1,0,0,0,0,0,-0.293479732626,-0.152473819625,-0.0372606577816
2019-01-11 16:12:14.000,-0.271432751975,0.914649932285,-0.150406694308,-4.63185118641,-2.5775342431,11.0226352699,heavy,B,31,1,0,0,0,0,0,-0.318337287222,-0.173321809089,-0.0420180931112
2019-01-11 16:12:14.200,-0.236896477742,1.0241258527,-0.122783918982,-14.6655829458,-5.21416066337,27.7556338584,heavy,B,31,1,0,0,0,0,0,-0.35200961788,-0.147695683286,-0.0279099774658
2019-01-11 16:12:14.400,-0.12739891158,0.982431655952,-0.0785632820225,-14.0200545342,-4.23919597082,29.902672357,heavy,B,31,1,0,0,0,0,0,-0.327681073565,-0.10484123816,0.00975001053362
2019-01-11 16:12:14.600,-0.0188300699277,0.868222448475,-0.0370330068879,-10.7829678488,-2.2795823953,19.7686990214,heavy,B,31,1,0,0,0,0,0,-0.278876767855,-0.0661035420985,0.0443071441726
2019-01-11 16:12:14.800,0.0198782229852,0.867323888365,0.00992685254654,-6.05884806261,-1.00631155853,5.07108998262,heavy,B,31,1,0,0,0,0,0,-0.274161764067,-0.0322119160863,0.0519438249883
2019-01-11 16:12:15.000,0.00095753540702,0.965427683436,0.046327137852,2.5945203875,-0.552272822902,-5.98184375026,heavy,B,31,1,0,0,0,0,0,-0.308037877938,-0.0109903502453,0.0410171134845
2019-01-11 16:12:15.200,-0.0203461202274,1.01210106331,0.0419948381795,8.04125231509,-1.49168053938,-6.52634495641,heavy,B,31,1,0,0,0,0,0,-0.32569364941,-0.0156706261513,0.0350379445092
2019-01-11 16:12:15.400,-0.0213863068159,0.984396331698,0.0128248196529,1.93213411928,-3.77539797222,2.0818080395,heavy,B,31,1,0,0,0,0,0,-0.317148991113,-0.0337751753963,0.0390808055143
2019-01-11 16:12:15.600,-0.0175520457887,0.972407570793,0.00787369264487,-6.84579738591,-4.69557643415,6.953327175,heavy,B,31,1,0,0,0,0,0,-0.312963184972,-0.0363043284853,0.0406688365143
2019-01-11 16:12:15.800,-0.0208671958579,0.965074145212,0.0255408925304,-0.842753563467,-1.54557429653,-2.85763291663,heavy,B,31,1,0,0,0,0,0,-0.310268363739,-0.0267861826244,0.0354495752891
2019-01-11 16:12:16.000,-0.0351387327688,0.874881962246,0.00720611898853,16.7721428664,3.63087176171,-19.4970214583,heavy,B,31,1,0,0,0,0,0,-0.281155262295,-0.0430195733734,0.0299077166393
2019-01-11 16:12:16.200,-0.0768005977327,0.763632627912,-0.059314439589,21.1556708554,5.22828327342,-23.713903631,heavy,B,31,1,0,0,0,0,0,-0.248468041547,-0.0925935874743,0.0205120590321
2019-01-11 16:12:16.400,-0.156374865194,0.818351703429,-0.0952585116378,2.21816393758,0.817902559521,-11.0601769497,heavy,B,31,1,0,0,0,0,0,-0.2746898382,-0.124957360346,-0.00619703928478
2019-01-11 16:12:16.600,-0.241934649603,1.0517001069,-0.040109682131,-16.2941742217,-5.90062588916,1.58819826163,heavy,B,31,1,0,0,0,0,0,-0.35978366419,-0.0992375186769,-0.0467265626173
2019-01-11 16:12:16.800,-0.280650242215,1.21953752624,0.0451428005949,-8.94007232734,-9.64075354245,0.567258744831,heavy,B,31,1,0,0,0,0,0,-0.417811811574,-0.0505526140484,-0.0741573247529
2019-01-11 16:12:17.000,-0.262777981141,1.13310626238,0.0502139463048,14.7701404334,-8.52539003235,-6.68679424096,heavy,B,31,1,0,0,0,0,0,-0.386698357133,-0.0477837552784,-0.0699357304931
2019-01-11 16:12:17.200,-0.233630797353,0.9116290312,-0.0373173886758,25.0627099893,-3.90355111811,-6.81530306479,heavy,B,31,1,0,0,0,0,0,-0.311195568553,-0.101434380071,-0.0479040117096
2019-01-11 16:12:17.400,-0.234676509131,0.812150611043,-0.126269911443,13.4783928134,1.74772129577,-0.896497684721,heavy,B,31,1,0,0,0,0,0,-0.279784850366,-0.15659849898,-0.0345389724071
2019-01-11 16:12:17.600,-0.257753442969,0.903955580411,-0.151571435732,-1.91518196422,5.22312827446,2.734300818,heavy,B,31,1,0,0,0,0,0,-0.31355947956,-0.17192807375,-0.0357750163775
2019-01-11 16:12:17.800,-0.264794123283,1.02788210196,-0.138065487418,-8.22243311388,3.76578221601,5.70817202263,heavy,B,31,1,0,0,0,0,0,-0.355885550859,-0.161071379299,-0.0361511991131
2019-01-11 16:12:18.000,-0.231311700439,1.02932042337,-0.126206742145,-11.5765595762,-1.75694699459,14.4327694886,heavy,B,31,1,0,0,0,0,0,-0.353338843542,-0.148551015911,-0.0239323736199
2019-01-11 16:12:18.200,-0.162671018258,0.925925643092,-0.1026822041,-17.2886038793,-6.5415475586,23.7379117973,heavy,B,31,1,0,0,0,0,0,-0.312067600054,-0.126703755347,-0.00382676800427
2019-01-11 16:12:18.400,-0.0854870227165,0.845734090876,-0.0406425623954,-17.1441413197,-6.70767728975,21.3993447779,heavy,B,31,1,0,0,0,0,0,-0.276962744839,-0.0801185297304,0.0133811963664
2019-01-11 16:12:18.600,-0.031532430118,0.86774059633,0.0350861186368,-4.90270466652,-3.3811260973,7.68903247847,heavy,B,31,1,0,0,0,0,0,-0.277991576505,-0.0261730916268,0.0231701821164
2019-01-11 16:12:18.800,-0.0164053015776,0.950478968768,0.0677948266196,9.95033132448,-0.71421583762,-2.78194863072,heavy,B,31,1,0,0,0,0,0,-0.303853807293,-0.00196292348916,0.0280709519282
2019-01-11 16:12:19.000,-0.0252244490964,1.00121443839,0.0385324502853,13.8614896695,-1.03982938116,-0.431921751933,heavy,B,31,1,0,0,0,0,0,-0.322454135326,-0.0189634425145,0.033309426845
2019-01-11 16:12:19.200,-0.0272860585448,0.990676109178,-0.0168708871655,6.71818708798,-2.93950561101,7.52161546152,heavy,B,31,1,0,0,0,0,0,-0.320444975003,-0.0519926691681,0.043500938314
2019-01-11 16:12:19.400,-0.010283532683,0.968858732424,-0.0573262490847,0.274330500487,-3.31422952391,7.43826018246,heavy,B,31,1,0,0,0,0,0,-0.31264727357,-0.0734233290545,0.0586301035265
2019-01-11 16:14:45.600,0.00596513402117,0.964828773099,-0.0806503272205,3.50702100288,-1.32493742358,-4.09056147455,heavy,A,3,1,0,0,0,0,0,-0.310435846156,-0.0844700077312,0.0713384774273
2019-01-11 16:14:45.800,-0.00645502978237,0.933887469162,-0.11359349889,13.9014857103,-0.721524032336,-16.3764194032,heavy,A,3,1,0,0,0,0,0,-0.301666474347,-0.106977195192,0.072306722548
2019-01-11 16:14:46.000,-0.0508115841566,0.856075721172,-0.168835106177,20.4313455589,-6.1182794369,-16.0175648194,heavy,A,3,1,0,0,0,0,0,-0.28026179599,-0.149499102144,0.0609180415634
2019-01-11 16:14:46.200,-0.101611140612,0.823383153941,-0.221027690828,13.9961328166,-15.0553209017,-2.37729302357,heavy,A,3,1,0,0,0,0,0,-0.274742707667,-0.189716451808,0.0471631022302
2019-01-11 16:14:46.400,-0.132014937439,0.926891504063,-0.230772588493,-1.88684677683,-17.5419364473,9.39949277793,heavy,A,3,1,0,0,0,0,0,-0.31274452811,-0.196921165871,0.0395750452835
2019-01-11 16:14:46.600,-0.141296137818,1.0895031427,-0.192452365713,-12.0996270564,-8.22067737104,5.05519548192,heavy,A,3,1,0,0,0,0,0,-0.367793780834,-0.170352080945,0.0345652153384
2019-01-11 16:14:46.800,-0.151117377827,1.13753607221,-0.147619129299,-6.82014646901,4.57537649578,-9.96645471749,heavy,A,3,1,0,0,0,0,0,-0.383753593072,-0.143992074397,0.0232632199713
2019-01-11 16:14:47.000,-0.174484566427,1.04001652723,-0.140536490614,4.85582567955,8.78484393389,-15.8301085103,heavy,A,3,1,0,0,0,0,0,-0.352376126999,-0.147061439977,0.00706011887722
2019-01-11 16:14:47.200,-0.195287910085,0.9413309558,-0.167866833858,5.95400786166,4.6995326766,-3.51701038645,heavy,A,3,1,0,0,0,0,0,-0.321326889129,-0.169894148072,-0.00143718193344
2019-01-11 16:14:47.400,-0.185686824875,0.931762791559,-0.187103753624,-5.39676856878,2.18828285871,14.4198090528,heavy,A,3,1,0,0,0,0,0,-0.317861146004,-0.179740558637,0.00564803535909
2019-01-11 16:14:47.600,-0.140060697571,0.93800373896,-0.170591993963,-14.2798684306,3.83042912323,21.7002919573,heavy,A,3,1,0,0,0,0,0,-0.315856843055,-0.16205959809,0.02227424197
2019-01-11 16:14:47.800,-0.0818899610988,0.900040472619,-0.133475724392,-10.62692403,2.35037240711,16.895669862,heavy,A,3,1,0,0,0,0,0,-0.297213632865,-0.131933961291,0.0387764523692
2019-01-11 16:14:48.000,-0.0377541049128,0.890468713197,-0.108161308018,-0.650139186878,-4.23368276105,7.97515127527,heavy,A,3,1,0,0,0,0,0,-0.289590951942,-0.110338983842,0.0534202354598
2019-01-11 16:14:48.200,-0.0162820661318,0.949129332238,-0.110479520349,6.46994135095,-7.71860921465,-1.60176290031,heavy,A,3,1,0,0,0,0,0,-0.307665249478,-0.106349428365,0.0672001475637
2019-01-11 16:14:48.400,-0.0155918250423,0.958667963886,-0.136403666268,10.7360769255,-4.52907918964,-11.229261434,heavy,A,3,1,0,0,0,0,0,-0.311406992327,-0.121072266346,0.0741653536709
2019-01-11 16:14:48.600,-0.0373534689165,0.844898323783,-0.172758183618,13.7072081405,-3.20043889837,-15.0621217522,heavy,A,3,1,0,0,0,0,0,-0.275498281103,-0.149733590437,0.0668807882397
2019-01-11 16:14:48.800,-0.0815263515196,0.768249547662,-0.199014458013,10.598114551,-9.33748642809,-8.1692669236,heavy,A,3,1,0,0,0,0,0,-0.253871468964,-0.175100242582,0.0485090941244
2019-01-11 16:14:49.000,-0.133844734285,0.911776413159,-0.19434765751,-0.115288197609,-13.7777944765,2.20514663937,heavy,A,3,1,0,0,0,0,0,-0.306879849916,-0.176359588525,0.0301816446276
2019-01-11 16:14:49.200,-0.172374393934,1.16542552505,-0.161022821717,-8.23441706349,-6.323419071,3.17640321442,heavy,A,3,1,0,0,0,0,0,-0.395336976734,-0.154705634826,0.0176673511707
2019-01-11 16:14:49.400,-0.188378275972,1.24664715768,-0.132774534841,-4.32449917325,6.62435966544,-6.03686703257,heavy,A,3,1,0,0,0,0,0,-0.423476139916,-0.137973460914,0.00872157772702
2019-01-11 16:14:49.600,-0.192205200575,1.09620487523,-0.141564082829,5.19985975309,10.2804904562,-12.1712286054,heavy,A,3,1,0,0,0,0,0,-0.372925653936,-0.148765273127,0.00206643060845
2019-01-11 16:14:49.800,-0.194550304081,0.928402888828,-0.178006223312,6.38943059306,2.62944521114,-4.6452748782,heavy,A,3,1,0,0,0,0,0,-0.317120979445,-0.176175568044,0.000526179686611
2019-01-11 16:14:50.000,-0.18758362819,0.893955119736,-0.200908370449,-2.67156742498,-4.70397718383,12.5188796582,heavy,A,3,1,0,0,0,0,0,-0.305512773461,-0.189564375445,0.00611783252067
2019-01-11 16:14:50.200,-0.152576162487,0.91942803102,-0.186675664248,-10.7311002899,-4.36571172133,25.6554504851,heavy,A,3,1,0,0,0,0,0,-0.310970002274,-0.174413118049,0.0193606666497
2019-01-11 16:14:50.400,-0.0882098672958,0.908267657287,-0.15407683296,-9.26942310089,-0.488063457246,23.3881512331,heavy,A,3,1,0,0,0,0,0,-0.301020071366,-0.144863081504,0.0408501770364
2019-01-11 16:14:50.600,-0.0251484488827,0.881394322368,-0.137289367351,-0.22015257377,1.31470386476,5.69027290669,heavy,A,3,1,0,0,0,0,0,-0.286146433006,-0.125445286469,0.0651862245986
2019-01-11 16:14:50.800,-0.00349894990214,0.861930864384,-0.149506269273,10.3028099878,0.278083641819,-13.7220548167,heavy,A,3,1,0,0,0,0,0,-0.27791914447,-0.129771916979,0.0776875878453
2019-01-11 16:14:51.000,-0.0335265285384,0.821732174721,-0.17888368007,16.8191713117,-3.60927962982,-17.6484245744,heavy,A,3,1,0,0,0,0,0,-0.267443764066,-0.153492016116,0.0690364496477
2019-01-11 16:14:51.200,-0.0851508766077,0.809109716687,-0.205594036851,14.104452641,-9.7710062321,-4.38605019811,heavy,A,3,1,0,0,0,0,0,-0.268156441234,-0.178285313575,0.0505359838673
2019-01-11 16:14:51.400,-0.120623236527,0.9347620911,-0.212954121428,1.57121747972,-12.097268803,7.83800883237,heavy,A,3,1,0,0,0,0,0,-0.314002954449,-0.184269358023,0.0414466773088
2019-01-11 16:14:51.600,-0.1319587697,1.15131908245,-0.194531055372,-11.0365794414,-4.07218782659,2.72143557588,heavy,A,3,1,0,0,0,0,0,-0.388000693516,-0.16789827992,0.0424825612395
2019-01-11 16:14:51.800,-0.140189462243,1.23772040523,-0.164732314028,-11.1450647263,9.09694582923,-12.8661945862,heavy,A,3,1,0,0,0,0,0,-0.417233323978,-0.148708334392,0.0368295227384
2019-01-11 16:14:52.000,-0.163142499108,1.10153635334,-0.154323495157,0.623537437948,13.4228907309,-18.5311458192,heavy,A,3,1,0,0,0,0,0,-0.372636854544,-0.151031795016,0.0181331695975
2019-01-11 16:14:52.200,-0.193225032508,0.92139093047,-0.178140662391,9.01062212478,4.41960707374,-6.48766971476,heavy,A,3,1,0,0,0,0,0,-0.31461168231,-0.176264403146,0.00100351220005
2019-01-11 16:14:52.400,-0.20554245582,0.88235670893,-0.208845671951,2.52543190586,-6.66267312352,12.3899682991,heavy,A,3,1,0,0,0,0,0,-0.303228142102,-0.197724359602,-0.000513774023525
2019-01-11 16:14:52.600,-0.180301947677,0.936892332539,-0.200703628716,-11.9906502518,-8.60830628339,24.5139226852,heavy,A,3,1,0,0,0,0,0,-0.319549105738,-0.186760491684,0.0107275543054
2019-01-11 16:14:52.800,-0.119099592809,0.945855801491,-0.145778898908,-17.5446015596,-3.56037943496,24.0259073558,heavy,A,3,1,0,0,0,0,0,-0.316211986585,-0.143884571852,0.0263991313521
2019-01-11 16:14:53.000,-0.0484289447158,0.897755822037,-0.0920856015514,-6.53825048504,-0.0808928263311,10.8583746348,heavy,A,3,1,0,0,0,0,0,-0.292619394635,-0.102304634373,0.045000628757
2019-01-11 16:14:53.200,-0.00689226927848,0.854239805697,-0.0933260851908,11.80757605,-1.10401823599,-8.33541329721,heavy,A,3,1,0,0,0,0,0,-0.274254210088,-0.0977958045773,0.0633457644655
2019-01-11 16:14:53.400,-0.0177659281831,0.819037301144,-0.148424684833,22.0376035269,-4.54464817265,-18.8540407023,heavy,A,3,1,0,0,0,0,0,-0.264445254638,-0.133228226276,0.0696421784864
2019-01-11 16:14:53.600,-0.0689228110774,0.802893619174,-0.205255611522,17.3412417763,-9.01393190208,-11.3369113843,heavy,A,3,1,0,0,0,0,0,-0.264649657234,-0.175599791382,0.0578127901405
2019-01-11 16:14:53.800,-0.12537978389,0.891298798621,-0.220697899677,4.10523110045,-12.3579671439,3.14970603869,heavy,A,3,1,0,0,0,0,0,-0.299825816685,-0.191064264413,0.0390551955451
2019-01-11 16:14:54.000,-0.163347420773,1.09295824328,-0.200011032314,-6.08867227419,-9.65259153855,4.68960022264,heavy,A,3,1,0,0,0,0,0,-0.370936577448,-0.178483880177,0.0268140467251
2019-01-11 16:14:54.200,-0.185002757768,1.22826889159,-0.17541178895,-7.41306273815,0.48451954282,-8.0358656018,heavy,A,3,1,0,0,0,0,0,-0.418006654798,-0.16302775711,0.0185674991801
2019-01-11 16:14:54.400,-0.20049439171,1.13704270277,-0.166915051966,-2.65752551982,10.6095547465,-16.2075744429,heavy,A,3,1,0,0,0,0,0,-0.388121228969,-0.163500401838,0.00555593266436
2019-01-11 16:14:54.600,-0.209880108617,0.923460165006,-0.176478732763,2.49752503141,11.5898057909,-8.88393745779,heavy,A,3,1,0,0,0,0,0,-0.316709831765,-0.17775245767,-0.00713724605059
2019-01-11 16:14:54.800,-0.209694880677,0.828851517992,-0.20104517196,4.41390841954,3.71034350202,3.56849346758,heavy,A,3,1,0,0,0,0,0,-0.2852200636,-0.195412110017,-0.00650954395507
2019-01-11 16:14:55.000,-0.202810811208,0.908871052533,-0.227065473748,1.07047219711,-3.93142566804,9.53759684812,heavy,A,3,1,0,0,0,0,0,-0.312426766924,-0.206966158024,0.00605112008112
2019-01-11 16:14:55.200,-0.188154807389,0.999911988401,-0.222809618633,-7.59032416349,-4.31536098093,12.8498194415,heavy,A,3,1,0,0,0,0,0,-0.34203496461,-0.198901881134,0.0157262944664
2019-01-11 16:14:55.400,-0.152063962946,0.983614454905,-0.16769097037,-16.0102479495,0.855242847633,19.1371690439,heavy,A,3,1,0,0,0,0,0,-0.332261125731,-0.160909593828,0.0184282347727
2019-01-11 16:14:55.600,-0.0888232470392,0.920870491282,-0.0916576941404,-15.1083552606,4.86490327784,20.7443748468,heavy,A,3,1,0,0,0,0,0,-0.303897703864,-0.107831209238,0.0271084827659
2019-01-11 16:14:55.800,-0.0237440121414,0.905841473746,-0.0546395455296,-3.38645573418,3.24006439259,10.2058356384,heavy,A,3,1,0,0,0,0,0,-0.292378677105,-0.0759799101669,0.0485163464905
2019-01-11 16:14:56.000,0.0065554035057,0.932143996386,-0.0748524944949,8.03827175262,-2.72646157697,-2.47876968414,heavy,A,3,1,0,0,0,0,0,-0.299136415792,-0.0821594477096,0.0689289212658
2019-01-11 16:14:56.200,-0.00197523249873,0.954025519864,-0.105966380658,8.28843806584,-7.58432021952,-3.58318816063,heavy,A,3,1,0,0,0,0,0,-0.308004978967,-0.101175562187,0.0730689950572
2019-01-11 16:14:56.400,-0.0184228787974,0.966415915482,-0.105327725076,2.01536591862,-7.06796445759,0.868101273174,heavy,A,3,1,0,0,0,0,0,-0.313620144847,-0.103043698039,0.0656447552804
2019-01-11 16:14:56.600,-0.0240134278451,0.96191675475,-0.0970183696734,3.43317144876,-3.29595175062,-5.00871325548,heavy,A,3,1,0,0,0,0,0,-0.312341761744,-0.0992034779534,0.0612544723098
2019-01-11 16:14:56.800,-0.0380704410616,0.903641105684,-0.132674738722,15.1522662355,-3.27870883888,-17.4238512906,heavy,A,3,1,0,0,0,0,0,-0.294498378912,-0.124503556858,0.0607880679988
2019-01-11 16:14:57.000,-0.0820889180568,0.816492570947,-0.206168425775,22.4363735418,-9.86798504897,-15.824988118,heavy,A,3,1,0,0,0,0,0,-0.270331790018,-0.177989977176,0.0531380836307
2019-01-11 16:14:57.200,-0.138473979392,0.822563329716,-0.251833040718,12.7436148151,-16.0497403456,2.18951293392,heavy,A,3,1,0,0,0,0,0,-0.278293253284,-0.213945377547,0.0370965361449
2019-01-11 16:14:57.400,-0.17041784076,0.984472598224,-0.230549230818,-6.59014566705,-12.4564887557,12.1659738311,heavy,A,3,1,0,0,0,0,0,-0.335501110688,-0.201153373211,0.0247305042553
2019-01-11 16:14:57.600,-0.173295102548,1.16765007567,-0.176883966311,-17.2119250431,0.193007369646,-1.01826588271,heavy,A,3,1,0,0,0,0,0,-0.396609495041,-0.163771837949,0.0203987266275
2019-01-11 16:14:57.800,-0.177851998196,1.17634886532,-0.145954585755,-11.8540892727,11.1694774901,-18.769148573,heavy,A,3,1,0,0,0,0,0,-0.3991257071,-0.145990244093,0.0126150312421
2019-01-11 16:14:58.000,-0.201338942663,1.0094352024,-0.149243313065,0.18478192534,12.5456578456,-16.3960222229,heavy,A,3,1,0,0,0,0,0,-0.344495748749,-0.157501118113,-0.00497422518533
2019-01-11 16:14:58.200,-0.223475662834,0.863633039751,-0.166007794147,7.33588705495,6.60893333031,1.02912651671,heavy,A,3,1,0,0,0,0,0,-0.297295510632,-0.17606963497,-0.0184983986349
2019-01-11 16:14:58.400,-0.221555948572,0.872025006473,-0.185422104118,6.82498021571,-0.34121411034,10.5787879119,heavy,A,3,1,0,0,0,0,0,-0.30046385022,-0.186979835818,-0.0131342391016
2019-01-11 16:14:58.600,-0.203622847425,0.956510086426,-0.202882606369,1.20626895732,-5.19154347083,8.29582660452,heavy,A,3,1,0,0,0,0,0,-0.328063045453,-0.191421866021,0.00276524861216
2019-01-11 16:14:58.800,-0.185684181377,0.981771558382,-0.198021912549,-6.87507909079,-6.55929002582,10.3278878581,heavy,A,3,1,0,0,0,0,0,-0.33508190471,-0.184642769515,0.0105323159515
2019-01-11 16:14:59.000,-0.155960883004,0.943471128382,-0.158183157999,-12.7118847107,-2.82804284951,20.7820583184,heavy,A,3,1,0,0,0,0,0,-0.318731546597,-0.15745516173,0.0127082766487
2019-01-11 16:14:59.200,-0.093791100475,0.920792137166,-0.112622978226,-10.1748869306,3.6997361295,23.3086267325,heavy,A,3,1,0,0,0,0,0,-0.304748846768,-0.121037113195,0.0297525282058
2019-01-11 16:14:59.400,-0.0172925857902,0.926791611902,-0.10097556091,-0.350582017986,5.86559386277,10.0339868464,heavy,A,3,1,0,0,0,0,0,-0.300017282806,-0.101304161625,0.062932533374
2019-01-11 16:14:59.600,0.0233140505947,0.91928699447,-0.109500582218,6.2939116017,0.279350087071,-2.86318140214,heavy,A,3,1,0,0,0,0,0,-0.294216687079,-0.0999438856128,0.0834259570469
2019-01-11 16:14:59.800,0.00667764758116,0.918928344593,-0.0816804244388,3.36986273378,-6.74856494166,-0.884829090426,heavy,A,3,1,0,0,0,0,0,-0.294852627349,-0.0865786057303,0.0694949245437
2019-01-11 16:38:55.000,-0.0377359111006,0.992443634039,-0.00267176140752,-0.6288794906,-6.91226985889,3.66937664904,heavy,A,9,0,0,1,0,0,0,-0.321635594992,-0.0453422780412,0.0353185050465
2019-01-11 16:38:55.200,-0.0828478242633,1.11294995679,0.0650606954878,6.07960217916,-0.428138335637,-9.80569855766,heavy,A,9,0,0,1,0,0,0,-0.364554189034,-0.00928517667594,0.00668758529935
2019-01-11 16:38:55.400,-0.144869975173,1.14944643982,0.0536967838028,18.9010563414,5.9793942551,-34.493403013,heavy,A,9,0,0,1,0,0,0,-0.38222765978,-0.0251701697796,-0.0157681197064
2019-01-11 16:38:55.600,-0.240115096464,1.03931228328,-0.0258453409989,20.0193693818,8.43057606168,-39.0555584078,heavy,A,9,0,0,1,0,0,0,-0.35472768005,-0.091232240299,-0.046662217171
2019-01-11 16:38:55.800,-0.325345907306,0.887368185246,-0.0974281214473,3.26232886188,7.71904246459,-9.05910824168,heavy,A,9,0,0,1,0,0,0,-0.312230134632,-0.152151377291,-0.0786159504795
2019-01-11 16:38:56.000,-0.327298015681,0.830717238899,-0.106955804893,-14.5421122299,4.44938096922,29.8847767358,heavy,A,9,0,0,1,0,0,0,-0.293623632022,-0.159737818463,-0.0820422994471
2019-01-11 16:38:56.200,-0.234632545143,0.86274400601,-0.0732088464607,-13.3960630446,-1.25715891075,39.8198719042,heavy,A,9,0,0,1,0,0,0,-0.295947179251,-0.1235707178,-0.0460897712565
2019-01-11 16:38:56.400,-0.126248376128,0.868175197592,-0.0526987113696,5.48548433076,-6.31703270744,13.7749664264,heavy,A,9,0,0,1,0,0,0,-0.288061319703,-0.093616617485,0.000289314439309
2019-01-11 16:38:56.600,-0.0934605829955,0.806080876693,-0.0747646247163,22.413088406,-7.04695604824,-18.4522291999,heavy,A,9,0,0,1,0,0,0,-0.264618292564,-0.103319265286,0.0184798341449
2019-01-11 16:38:56.800,-0.150342288802,0.770587516651,-0.121405082519,21.7637851513,-4.9724531514,-25.2148954707,heavy,A,9,0,0,1,0,0,0,-0.258442028815,-0.141233754944,0.00135317930901
2019-01-11 16:38:57.000,-0.22859211549,0.84960007968,-0.15595006052,4.47921496775,-5.06168661542,-4.23654643247,heavy,A,9,0,0,1,0,0,0,-0.292749683374,-0.171703569302,-0.0238678728166
2019-01-11 16:38:57.200,-0.246643178081,0.993919249308,-0.151509282459,-17.5406268197,-7.9690450155,22.1419618006,heavy,A,9,0,0,1,0,0,0,-0.343286423205,-0.167127400945,-0.0275841292833
2019-01-11 16:38:57.400,-0.178464962163,1.08434770232,-0.0981237042214,-30.063190222,-8.96867158541,33.0848327024,heavy,A,9,0,0,1,0,0,0,-0.367092129869,-0.121337445664,-0.00496422477166
2019-01-11 16:38:57.600,-0.0712596151671,1.0913216149,-0.0119221359624,-22.457686387,-5.22531126218,23.5692776188,heavy,A,9,0,0,1,0,0,0,-0.358374915998,-0.0527556450395,0.0254777384431
2019-01-11 16:38:57.800,-0.00849806532868,1.09064117756,0.0548645050269,2.88858353955,0.462231248106,-0.552343262137,heavy,A,9,0,0,1,0,0,0,-0.351067825931,-0.00345969235362,0.0410907398045
2019-01-11 16:38:58.000,-0.0456550589148,1.12137026489,0.0456334247092,25.882493418,4.250160767,-28.4755649257,heavy,A,9,0,0,1,0,0,0,-0.3645730601,-0.0143376546185,0.0298046164659
2019-01-11 16:38:58.200,-0.164112350539,1.11301620583,-0.0342327472604,24.9983619651,5.44447759942,-43.485901429,heavy,A,9,0,0,1,0,0,0,-0.373517459342,-0.0811192798814,-0.00633865420162
2019-01-11 16:38:58.400,-0.281900342205,0.999637220051,-0.106154720464,2.31583687318,4.62793295443,-29.6655593083,heavy,A,9,0,0,1,0,0,0,-0.346842507437,-0.146313210389,-0.0510940896594
2019-01-11 16:38:58.600,-0.317028920065,0.844208097047,-0.103336204438,-16.9389635004,1.43052433659,8.52442173282,heavy,A,9,0,0,1,0,0,0,-0.297243346007,-0.155456756267,-0.0773103170807
2019-01-11 16:38:58.800,-0.253079563705,0.772657448457,-0.0499517776492,-13.6224775784,-3.44102355198,39.3052387388,heavy,A,9,0,0,1,0,0,0,-0.266402526644,-0.116061024985,-0.0641253276294
2019-01-11 16:38:59.000,-0.152383516017,0.80495676248,-0.0250534841362,5.61513269751,-6.81892853275,31.6597394463,heavy,A,9,0,0,1,0,0,0,-0.268183126861,-0.0839384737083,-0.0211282709905
2019-01-11 16:38:59.200,-0.103572792815,0.834481291919,-0.0642045715331,21.1423435611,-6.66608444255,-6.88195364074,heavy,A,9,0,0,1,0,0,0,-0.27486382237,-0.0978902302624,0.0127257715713
2019-01-11 16:38:59.400,-0.145037063641,0.795150453427,-0.1327501969,22.1132061515,-5.37015958112,-33.7136816108,heavy,A,9,0,0,1,0,0,0,-0.26657955896,-0.146177449738,0.0076645987947
2019-01-11 16:38:59.600,-0.231872267774,0.772425719171,-0.182808712112,10.1614062673,-6.49939898853,-19.9261321324,heavy,A,9,0,0,1,0,0,0,-0.267437538776,-0.190601239176,-0.0226829157888
2019-01-11 16:38:59.800,-0.280227567291,0.879027660824,-0.193753636938,-7.58893911046,-9.24705086071,15.6024160119,heavy,A,9,0,0,1,0,0,0,-0.30806487223,-0.201418700663,-0.0384955064116
2019-01-11 16:39:00.000,-0.247132444478,1.06215953201,-0.161348215396,-20.9544961817,-9.38869811251,32.611576553,heavy,A,9,0,0,1,0,0,0,-0.366734451218,-0.17071046469,-0.0225906167014
2019-01-11 16:39:00.200,-0.164232335417,1.14132559282,-0.092819563239,-20.4850506414,-5.75092784836,20.2635564661,heavy,A,9,0,0,1,0,0,0,-0.384990158357,-0.114050463041,0.00400250282994
2019-01-11 16:39:00.400,-0.0961040406285,1.05688770328,-0.0210491302992,-7.41211986324,-2.13374947845,2.80427304674,heavy,A,9,0,0,1,0,0,0,-0.348839994642,-0.063542701548,0.0158313443077
2019-01-11 16:39:00.600,-0.0799323618243,0.969785290723,0.0128752863497,5.66380190905,-1.40887455661,-2.27858765668,heavy,A,9,0,0,1,0,0,0,-0.317044910057,-0.0440428405726,0.0121681110998
2019-01-11 16:39:00.800,-0.112859116871,1.03440226615,0.0023583563967,9.76969354697,-1.0682314421,-7.03287152507,heavy,A,9,0,0,1,0,0,0,-0.341904182276,-0.0536447031071,0.00319498678372
2019-01-11 16:39:01.000,-0.179147215174,1.16085400212,-0.0252172689928,8.42164700467,2.39165561828,-23.9777885342,heavy,A,9,0,0,1,0,0,0,-0.390938112286,-0.0766139203683,-0.0141045715257
2019-01-11 16:39:01.200,-0.261882308085,1.13544740508,-0.0512612016599,6.42843446804,6.94608242347,-35.8532092399,heavy,A,9,0,0,1,0,0,0,-0.389850770913,-0.106402584796,-0.0469577017895
2019-01-11 16:39:01.400,-0.327582346549,0.939481893322,-0.0748640828666,0.219104296466,7.0519573395,-17.1049739003,heavy,A,9,0,0,1,0,0,0,-0.329556496654,-0.137572843557,-0.0820432479868
2019-01-11 16:39:01.600,-0.33006555351,0.786810704835,-0.0821522881736,-10.7146907775,1.72786229552,22.8474662863,heavy,A,9,0,0,1,0,0,0,-0.278342669094,-0.147249151926,-0.0906363339102
2019-01-11 16:39:01.800,-0.255191080387,0.814297017652,-0.0555983183031,-12.6300627562,-3.64111376072,42.9040837443,heavy,A,9,0,0,1,0,0,0,-0.280823421626,-0.118374919403,-0.0617346082492
2019-01-11 16:39:02.000,-0.154201240948,0.892981727237,-0.0248992333383,5.83433230925,-4.78413887194,21.4186091342,heavy,A,9,0,0,1,0,0,0,-0.298148039887,-0.08120987094,-0.0173531676342
2019-01-11 16:39:02.200,-0.106917627941,0.8475949346,-0.0542826598107,29.6096871167,-4.01620907337,-15.1133447047,heavy,A,9,0,0,1,0,0,0,-0.279268376272,-0.0922885176303,0.0103608667322
2019-01-11 16:39:02.400,-0.141878600947,0.741310479955,-0.148399034133,28.7307719971,-5.66506376374,-25.5651645558,heavy,A,9,0,0,1,0,0,0,-0.248397777791,-0.156692804558,0.0101127106273
2019-01-11 16:39:02.600,-0.205892841097,0.779718907948,-0.217088572425,-2.13608802569,-9.1443713798,-3.45592849841,heavy,A,9,0,0,1,0,0,0,-0.268683266714,-0.205932710959,-0.004049656288
2019-01-11 16:39:02.800,-0.223014625225,0.982531752066,-0.177473555432,-32.5719615553,-10.4709198258,21.9401666531,heavy,A,9,0,0,1,0,0,0,-0.338197295755,-0.178534994783,-0.0126777698869
2019-01-11 16:39:03.000,-0.173297272926,1.13786372194,-0.0584967534703,-33.6320761683,-8.84689131139,26.4405949188,heavy,A,9,0,0,1,0,0,0,-0.383875270019,-0.0954684190265,-0.00879757567936
2019-01-11 16:39:03.200,-0.100880575253,1.11116992323,0.0417738740657,-11.8569635326,-7.09649506272,14.6503313275,heavy,A,9,0,0,1,0,0,0,-0.366197541793,-0.0258658270778,0.00202339327423
2019-01-11 16:39:03.400,-0.0573008930881,1.02621520815,0.0754469849417,6.25903288971,-5.95015434263,1.60212172939,heavy,A,9,0,0,1,0,0,0,-0.332795029754,-0.00191233972422,0.0113749671257
2019-01-11 16:39:03.600,-0.0625217331215,1.04882431215,0.0684111293459,11.1053185317,-2.70335718351,-10.8484948127,heavy,A,9,0,0,1,0,0,0,-0.34100166315,-0.00615432252828,0.0122354422839
2019-01-11 16:39:03.800,-0.117947239236,1.13076415472,0.0443850763078,13.2266202707,3.38714890156,-27.2287028761,heavy,A,9,0,0,1,0,0,0,-0.373928387171,-0.0266892734013,-0.00296219842692
2019-01-11 16:39:04.000,-0.219017865534,1.10461617322,-0.00757687037822,16.7201918159,8.51576711769,-38.5947626445,heavy,A,9,0,0,1,0,0,0,-0.37469284756,-0.0748119620845,-0.0380810640925
2019-01-11 16:39:04.200,-0.332152049503,0.949311677615,-0.0810001117768,11.2511891269,8.94229929117,-27.0798016556,heavy,A,9,0,0,1,0,0,0,-0.333309464667,-0.141732204419,-0.0813903242916
2019-01-11 16:39:04.400,-0.387232656036,0.814470923031,-0.125872627995,-6.1090704839,5.18532623953,7.6472819231,heavy,A,9,0,0,1,0,0,0,-0.293469336919,-0.181475662885,-0.104876854216
2019-01-11 16:39:04.600,-0.3341598571,0.806239522086,-0.106857146878,-18.9635918278,0.288583955712,38.9375618174,heavy,A,9,0,0,1,0,0,0,-0.285949692161,-0.161662191365,-0.0868467925335
2019-01-11 16:39:04.800,-0.207288522143,0.868504102224,-0.0565227545532,-11.375810115,-3.33887550723,38.7413158485,heavy,A,9,0,0,1,0,0,0,-0.295202415171,-0.109115819491,-0.0369807107053
2019-01-11 16:39:05.000,-0.104451827572,0.886211056334,-0.0397234441125,10.2913383139,-4.53377171132,8.71417304437,heavy,A,9,0,0,1,0,0,0,-0.291997777752,-0.0818163031011,0.00858291877408
2019-01-11 16:39:05.200,-0.0936484847739,0.830034604238,-0.0795144055174,24.9230374571,-3.79483929612,-21.3792561196,heavy,A,9,0,0,1,0,0,0,-0.272839011583,-0.105309688968,0.0208693340274
2019-01-11 16:39:05.400,-0.157153337344,0.778088244199,-0.141141330943,20.8320803394,-3.74209459271,-25.7466447164,heavy,A,9,0,0,1,0,0,0,-0.262028992945,-0.153629866082,0.00296705314413
2019-01-11 16:39:05.600,-0.227637305968,0.822533278472,-0.178870922729,4.47458790057,-6.23945017231,-6.70283856823,heavy,A,9,0,0,1,0,0,0,-0.284039052505,-0.185860396885,-0.0196955189037
2019-01-11 16:39:05.800,-0.254637134185,0.959520326793,-0.175470286161,-11.2973807062,-8.93145666753,14.3956448158,heavy,A,9,0,0,1,0,0,0,-0.332803385673,-0.183724227777,-0.0271162328519
2019-01-11 16:39:06.000,-0.22905855615,1.079176296,-0.138921211217,-18.9167644584,-7.98100613325,22.3481338782,heavy,A,9,0,0,1,0,0,0,-0.370426741496,-0.153996123517,-0.0182064044483
2019-01-11 16:39:06.200,-0.171614797248,1.09124355766,-0.0855204627063,-16.470233888,-4.05558553939,17.5205923246,heavy,A,9,0,0,1,0,0,0,-0.368420232339,-0.112689122009,-0.00316947338879
2019-01-11 16:39:06.400,-0.120628508132,1.03822604001,-0.0375087913588,-5.26246344598,-1.47088216423,5.529409414,heavy,A,9,0,0,1,0,0,0,-0.34494009574,-0.0779168353392,0.00752598241894
2019-01-11 16:39:06.600,-0.116563767926,1.02513665618,-0.0211141203309,8.58403276215,-1.20605644312,-10.7527450883,heavy,A,9,0,0,1,0,0,0,-0.339636396719,-0.0682773937871,0.00622946613202
2019-01-11 16:39:06.800,-0.172818149839,1.05754060348,-0.0465492612998,15.1455111694,0.546959850947,-26.4940838233,heavy,A,9,0,0,1,0,0,0,-0.355843423059,-0.0915686097804,-0.0112740799066
2019-01-11 16:39:07.000,-0.259978323382,1.03823171445,-0.0901508978602,9.05596321709,5.63477455697,-31.2800649058,heavy,A,9,0,0,1,0,0,0,-0.357653889166,-0.132097883114,-0.0423176797548
2019-01-11 16:39:07.200,-0.328755261057,0.930655803412,-0.110800198804,-4.26853198075,10.0837914677,-17.3747966768,heavy,A,9,0,0,1,0,0,0,-0.327553372524,-0.158938456262,-0.0753429455744
2019-01-11 16:39:07.400,-0.345152365067,0.830453567215,-0.0895766414205,-14.0231036037,9.29313469913,9.99008466687,heavy,A,9,0,0,1,0,0,0,-0.294575242604,-0.152454721017,-0.0935830168603
2019-01-11 16:39:07.600,-0.300473629984,0.833587009834,-0.04674101138,-14.0704795032,4.06321994531,33.8227549462,heavy,A,9,0,0,1,0,0,0,-0.290925182823,-0.119950510791,-0.0831123938094
2019-01-11 16:39:07.800,-0.207289585986,0.902496097983,-0.0191626996352,-5.23387199208,-1.06958451352,37.2089514968,heavy,A,9,0,0,1,0,0,0,-0.30577989552,-0.0861985727863,-0.0431074415196
2019-01-11 16:39:08.000,-0.106679461048,0.921089042017,-0.0294333775002,8.38365404155,-3.73061803406,16.2469345327,heavy,A,9,0,0,1,0,0,0,-0.303786138563,-0.0749866310939,0.00681204049904
2019-01-11 16:39:08.200,-0.0626686316094,0.85154567709,-0.0746897167927,19.8454369677,-5.52964317048,-14.2523577436,heavy,A,9,0,0,1,0,0,0,-0.277481699663,-0.0965521045628,0.0344536481651
2019-01-11 16:39:08.400,-0.110283323554,0.782396569108,-0.129507944025,19.6310788475,-8.50393550016,-29.0107629957,heavy,A,9,0,0,1,0,0,0,-0.259307296417,-0.138907595966,0.0217789863361
2019-01-11 16:39:08.600,-0.202088640813,0.816949039884,-0.156122692304,4.16565773664,-11.7235372685,-13.5802919892,heavy,A,9,0,0,1,0,0,0,-0.279467658886,-0.168561538814,-0.0133669692636
2019-01-11 16:39:08.800,-0.239142296917,0.949790628497,-0.130027189351,-15.6724761558,-12.3106198521,19.2397365501,heavy,A,9,0,0,1,0,0,0,-0.327175051953,-0.154875429455,-0.0310095381282
2019-01-11 16:39:09.000,-0.174049236552,1.07940398107,-0.0662703797345,-22.8415687618,-9.16485087361,39.2419776159,heavy,A,9,0,0,1,0,0,0,-0.364239023705,-0.102259123578,-0.0099101473391
2019-01-11 16:39:09.200,-0.0614621530901,1.1242586117,-0.00730069599636,-13.3870058861,-4.52874637439,29.363188095,heavy,A,9,0,0,1,0,0,0,-0.368543687294,-0.0474691045453,0.0310183842407
2019-01-11 16:39:09.400,0.0109680412212,1.08610256025,0.0235304577425,-0.717049201561,-1.66703982831,3.22677549873,heavy,A,9,0,0,1,0,0,0,-0.348686857446,-0.0186639821076,0.0562948134631
2019-01-11 16:39:09.600,0.0161970977817,1.00814907974,0.0394504744707,1.8251291075,-1.91666564369,-12.0070050249,heavy,A,9,0,0,1,0,0,0,-0.321407498018,-0.0110647533989,0.0516337372818
2019-01-11 16:39:09.800,-0.0139757545004,0.934580739523,0.0514146770617,-4.33186551088,-4.04457060542,-7.06290517638,heavy,A,9,0,0,1,0,0,0,-0.298765864354,-0.0114913628884,0.031157471069
2019-01-11 16:39:10.000,-0.0572307641784,0.920644792694,0.0381392902174,-9.07079545551,-4.85070117026,1.9734727894,heavy,A,9,0,0,1,0,0,0,-0.298022197602,-0.0269139823329,0.013369691724
2019-01-11 16:40:08.400,-0.120386693546,0.998715910411,-0.0177554783067,-6.57867412096,-0.227258471302,-2.77796122279,heavy,B,32,0,0,1,0,0,0,-0.331056413624,-0.0675623385491,0.00134289814675
2019-01-11 16:40:08.600,-0.197867087574,1.09654606219,-0.0852289616263,3.49751596364,11.1758082123,-18.5611671266,heavy,B,32,0,0,1,0,0,0,-0.372176902631,-0.116699483629,-0.0129224676226
2019-01-11 16:40:08.800,-0.261160149761,1.07815875882,-0.121407869864,19.9370813084,23.284970862,-28.2882654954,heavy,B,32,0,0,1,0,0,0,-0.371933835054,-0.149067755922,-0.0332463360593
2019-01-11 16:40:09.000,-0.30166314044,0.925819347414,-0.14757020974,35.259166421,25.1004144185,-22.9388991577,heavy,B,32,0,0,1,0,0,0,-0.324185781844,-0.176377882225,-0.0525865043978
2019-01-11 16:40:09.200,-0.341184225974,0.792636286117,-0.230511407191,33.0309586144,12.5031497001,-8.74374432325,heavy,B,32,0,0,1,0,0,0,-0.284365994739,-0.236136847003,-0.0592649072441
2019-01-11 16:40:09.400,-0.380026122326,0.7993970473,-0.364759801232,4.12104943076,-4.04566622345,5.51321299146,heavy,B,32,0,0,1,0,0,0,-0.293364727148,-0.320844111684,-0.0489299260652
2019-01-11 16:40:09.600,-0.374675072614,0.873267553187,-0.431303202744,-33.9086152353,-9.34388802409,17.6377337828,heavy,B,32,0,0,1,0,0,0,-0.319873111896,-0.355948503116,-0.0306875104566
2019-01-11 16:40:09.800,-0.298412876766,0.886705244625,-0.332470466566,-47.9798531661,-1.56459326415,26.2644902184,heavy,B,32,0,0,1,0,0,0,-0.315831376921,-0.284534169791,-0.018364665792
2019-01-11 16:40:10.000,-0.193970098739,0.861755918011,-0.136574697597,-26.414905386,5.42785001221,25.8264962017,heavy,B,32,0,0,1,0,0,0,-0.293809422089,-0.153475615462,-0.0142963724887
2019-01-11 16:40:10.200,-0.129420817839,0.901105134865,-0.0158756905621,5.9827825964,0.703241065052,13.9558397395,heavy,B,32,0,0,1,0,0,0,-0.298602523482,-0.0713875875354,-0.00757481679504
2019-01-11 16:40:10.400,-0.121015608806,0.985629288342,-0.0449241968797,17.8780794248,-8.72855926543,-1.24124682265,heavy,B,32,0,0,1,0,0,0,-0.32712623605,-0.0845717089369,0.00788278518603
2019-01-11 16:40:10.600,-0.134047870318,1.0018629901,-0.132057480268,7.2746911983,-7.97559310325,-7.89294263508,heavy,B,32,0,0,1,0,0,0,-0.335868248974,-0.136987354273,0.0215164022379
2019-01-11 16:40:10.800,-0.142916498557,0.944161815463,-0.163003868291,-3.6018149579,3.95199437871,-2.94486339067,heavy,B,32,0,0,1,0,0,0,-0.317878293252,-0.158040017099,0.0207083942119
2019-01-11 16:40:11.000,-0.149647423489,0.925511880217,-0.136008776929,-2.14159214383,11.5509066721,5.57828198422,heavy,B,32,0,0,1,0,0,0,-0.311472204345,-0.143862556992,0.0107267110236
2019-01-11 16:40:11.200,-0.150871465524,0.974798399968,-0.115939638005,2.5361254982,3.9806583294,7.64103024686,heavy,B,32,0,0,1,0,0,0,-0.327770289494,-0.130953088001,0.00845462379366
2019-01-11 16:40:11.400,-0.132493819094,0.979342502401,-0.123940402773,2.39083594834,-9.43132779382,0.086847317201,heavy,B,32,0,0,1,0,0,0,-0.327964843418,-0.132680137973,0.0188429507858
2019-01-11 16:40:11.600,-0.108004916831,0.877197882471,-0.141655499428,7.30747803295,-11.6187100292,-12.1489799426,heavy,B,32,0,0,1,0,0,0,-0.291665179361,-0.142403516425,0.0291996464079
2019-01-11 16:40:11.800,-0.12455557959,0.768000244525,-0.183157375351,25.9127705983,-1.40731999796,-20.8964751759,heavy,B,32,0,0,1,0,0,0,-0.256852659245,-0.17311013441,0.0267319049754
2019-01-11 16:40:12.000,-0.206500049613,0.757804682052,-0.277184065967,40.2624233298,4.59245187661,-20.4037379102,heavy,B,32,0,0,1,0,0,0,-0.262356003572,-0.242278588876,0.0108441011031
2019-01-11 16:40:12.200,-0.313350373225,0.814123614565,-0.38054741882,21.5754629768,-5.00719930789,-10.0953678832,heavy,B,32,0,0,1,0,0,0,-0.293000013933,-0.318705936226,-0.0131813194791
2019-01-11 16:40:12.400,-0.37812075751,0.869901984846,-0.389374085862,-25.3081715796,-19.9235278721,5.32425907348,heavy,B,32,0,0,1,0,0,0,-0.317939393661,-0.332466564672,-0.040965659326
2019-01-11 16:40:12.600,-0.377529922197,0.959228967216,-0.271148703892,-53.9296358432,-20.8943046965,16.7231504216,heavy,B,32,0,0,1,0,0,0,-0.34560353222,-0.259854898846,-0.0643192860414
2019-01-11 16:40:12.800,-0.344715127381,1.11651805829,-0.134334056184,-28.4564134364,-4.1212880782,14.3280360756,heavy,B,32,0,0,1,0,0,0,-0.392694064082,-0.169223211039,-0.0700999999765
2019-01-11 16:40:13.000,-0.321922817153,1.22276538386,-0.118082227752,27.8033388799,14.773947897,-3.17033702484,heavy,B,32,0,0,1,0,0,0,-0.425915808936,-0.152900008763,-0.0541446090013
2019-01-11 16:40:13.200,-0.323687867551,1.12172008676,-0.234422246065,55.8539234279,19.8486681578,-21.7958444204,heavy,B,32,0,0,1,0,0,0,-0.394324964135,-0.224884290492,-0.0322279629406
2019-01-11 16:40:13.400,-0.341096964023,0.869962539484,-0.362071246536,29.2443672401,10.2285028987,-21.2932116182,heavy,B,32,0,0,1,0,0,0,-0.313714005434,-0.310500608823,-0.026280913492
2019-01-11 16:40:13.600,-0.353853180464,0.707689702872,-0.385947071719,-20.0871038503,-3.99927663658,2.85851120628,heavy,B,32,0,0,1,0,0,0,-0.260796869459,-0.331461238966,-0.0385003151515
2019-01-11 16:40:13.800,-0.333711836664,0.750440639619,-0.301827220694,-44.6687041647,-13.4443232477,29.9070013424,heavy,B,32,0,0,1,0,0,0,-0.271849000266,-0.277316683885,-0.0478622055916
2019-01-11 16:40:14.000,-0.26409602976,0.850839537411,-0.186563349434,-31.0294435737,-14.2769765823,33.780698446,heavy,B,32,0,0,1,0,0,0,-0.29721509446,-0.195182571032,-0.0360049703301
2019-01-11 16:40:14.200,-0.172249066784,0.830049467631,-0.112565891997,-0.204203155772,-7.89766334588,11.7091717075,heavy,B,32,0,0,1,0,0,0,-0.280449781945,-0.13753174917,-0.00953289554469
2019-01-11 16:40:14.400,-0.124081521633,0.725487914465,-0.109697070177,24.0423969368,0.0469215652363,-14.4506173628,heavy,B,32,0,0,1,0,0,0,-0.240678975571,-0.131407786464,0.00834489531439
2019-01-11 16:40:14.600,-0.167736387629,0.70369358161,-0.173917533208,33.364026081,3.32091287481,-24.8911564991,heavy,B,32,0,0,1,0,0,0,-0.238372060784,-0.177070157503,0.00246832192209
2019-01-11 16:40:14.800,-0.284955516985,0.804244120947,-0.275533567987,28.3000588882,-0.159902056145,-19.8081909821,heavy,B,32,0,0,1,0,0,0,-0.284708442411,-0.252845465786,-0.0234421553015
2019-01-11 16:40:15.000,-0.404235845471,0.902092684638,-0.361603082015,9.07374098599,-8.28245616332,-8.73332818647,heavy,B,32,0,0,1,0,0,0,-0.330058846202,-0.319838080797,-0.0548618956944
2019-01-11 16:40:15.200,-0.458168396295,0.91057093977,-0.374014983161,-20.1012488818,-16.9841076726,4.68440836808,heavy,B,32,0,0,1,0,0,0,-0.337994969976,-0.335585396159,-0.0781716942
2019-01-11 16:40:15.400,-0.431323573711,0.898373857112,-0.287303247659,-41.8239372323,-19.6646259021,17.951211035,heavy,B,32,0,0,1,0,0,0,-0.32975469612,-0.280490332059,-0.0874058721021
2019-01-11 16:40:15.600,-0.366575935034,0.963424514951,-0.145835320058,-32.7885068304,-9.82102067101,20.6706631631,heavy,B,32,0,0,1,0,0,0,-0.342952570927,-0.184700690219,-0.0855582677848
2019-01-11 16:40:15.800,-0.327703535042,1.07556831669,-0.0574870157827,9.051211428,9.00043758366,5.37602833026,heavy,B,32,0,0,1,0,0,0,-0.375235659784,-0.123090390642,-0.0789084949838
2019-01-11 16:40:16.000,-0.343329456436,1.11168067567,-0.111409829492,49.5957493029,21.0548868717,-16.0035663406,heavy,B,32,0,0,1,0,0,0,-0.389692241806,-0.156438386881,-0.0692937572209
2019-01-11 16:40:16.200,-0.382114763822,1.01067109545,-0.276428940332,47.8289171243,15.1245806492,-20.7423148822,heavy,B,32,0,0,1,0,0,0,-0.362634990448,-0.262863898089,-0.0555024167918
2019-01-11 16:40:16.400,-0.388356091812,0.840710680807,-0.408791779245,3.73700395483,-0.542077191527,-2.08150239572,heavy,B,32,0,0,1,0,0,0,-0.309101283417,-0.346545888562,-0.0407667750836
2019-01-11 16:40:16.600,-0.339116859046,0.725656058329,-0.394484820874,-38.5234369376,-9.09906197972,22.4655413396,heavy,B,32,0,0,1,0,0,0,-0.26604226295,-0.333227155267,-0.0305503712447
2019-01-11 16:40:16.800,-0.258498563087,0.733411829959,-0.264958773961,-41.9607335567,-6.64969318855,31.3369681163,heavy,B,32,0,0,1,0,0,0,-0.25889621789,-0.243606219902,-0.0226820318001
2019-01-11 16:40:17.000,-0.18538571663,0.823076113895,-0.143042883062,-15.0808932061,-2.67652112292,19.5350775401,heavy,B,32,0,0,1,0,0,0,-0.280039296043,-0.157441846858,-0.0101402469244
2019-01-11 16:40:17.200,-0.146676053963,0.887146378975,-0.104461023582,10.6509204488,-2.79870836618,-1.99680387753,heavy,B,32,0,0,1,0,0,0,-0.297361838874,-0.12668140536,0.00405139479061
2019-01-11 16:40:17.400,-0.158286803896,0.863345439812,-0.138064189743,22.9520093624,-3.01605295157,-19.1535456684,heavy,B,32,0,0,1,0,0,0,-0.290938484492,-0.149247392837,0.00609194545104
2019-01-11 16:40:17.600,-0.224251531009,0.804313376884,-0.213873536832,29.6288430602,-0.196935389835,-23.6500276633,heavy,B,32,0,0,1,0,0,0,-0.278179514316,-0.206623572157,-0.00945997019013
2019-01-11 16:40:17.800,-0.320332260034,0.803335454593,-0.31788131357,30.4999718365,2.25231205753,-15.7214601842,heavy,B,32,0,0,1,0,0,0,-0.288348541351,-0.283561561071,-0.0300546968445
2019-01-11 16:40:18.000,-0.395372309584,0.861597394337,-0.413009716362,13.9477038496,0.310167841438,-2.53280825318,heavy,B,32,0,0,1,0,0,0,-0.316781480595,-0.349650756923,-0.0413055892491
2019-01-11 16:40:18.200,-0.409688679286,0.896063263726,-0.431017165314,-18.286149751,-5.90388828921,8.13817587491,heavy,B,32,0,0,1,0,0,0,-0.330371339023,-0.361070747658,-0.0442867229729
2019-01-11 16:40:18.400,-0.370978524238,0.88736302625,-0.340435497154,-43.1021495218,-12.9790189265,13.8798796348,heavy,B,32,0,0,1,0,0,0,-0.322250731551,-0.301643722779,-0.0489114449445
2019-01-11 16:40:18.600,-0.32139548375,0.925983237531,-0.194775145802,-40.0204774089,-15.0775192064,15.4962118946,heavy,B,32,0,0,1,0,0,0,-0.327711018314,-0.206969974869,-0.0565729944879
2019-01-11 16:40:18.800,-0.293041404044,1.055770009,-0.0875947308254,-12.0644940369,-7.15666936976,10.9350261008,heavy,B,32,0,0,1,0,0,0,-0.366539713799,-0.13554959675,-0.0590425287785
2019-01-11 16:40:19.000,-0.289728791868,1.1578407618,-0.0750540383521,21.6718456484,6.97391219693,-2.35878961549,heavy,B,32,0,0,1,0,0,0,-0.40025468826,-0.124538788657,-0.0527865924382
2019-01-11 16:40:19.200,-0.307734537364,1.09170715138,-0.152245776934,43.6536076956,14.0792850754,-18.1382233308,heavy,B,32,0,0,1,0,0,0,-0.380973149276,-0.175062624198,-0.0455319722141
2019-01-11 16:40:19.400,-0.347298109146,0.904201814249,-0.274982323272,43.3301265243,6.35615053794,-22.0088558753,heavy,B,32,0,0,1,0,0,0,-0.323648250832,-0.259792201853,-0.0457262490944
2019-01-11 16:40:19.600,-0.390420196058,0.779018003675,-0.377817132277,17.9793796607,-6.57642478087,-7.18010434846,heavy,B,32,0,0,1,0,0,0,-0.287505366067,-0.33115769736,-0.0506940222494
2019-01-11 16:40:19.800,-0.393005319603,0.790224054161,-0.395670777568,-19.764584386,-8.7588508936,14.6250795558,heavy,B,32,0,0,1,0,0,0,-0.292287699035,-0.34112202727,-0.0500986735452
2019-01-11 16:40:20.000,-0.329997439377,0.833085623238,-0.313696381227,-42.9853925685,1.12169064782,25.0197177493,heavy,B,32,0,0,1,0,0,0,-0.299803234072,-0.280630480164,-0.0391593718106
2019-01-11 16:40:20.200,-0.238172660618,0.822374169173,-0.197822879778,-34.1532955942,8.56346371985,19.8980206425,heavy,B,32,0,0,1,0,0,0,-0.285663479273,-0.197798778884,-0.0231104730207
2019-01-11 16:40:20.400,-0.181423992067,0.822283498567,-0.138025955721,-6.62774164721,3.18514833398,10.8194773682,heavy,B,32,0,0,1,0,0,0,-0.279234903976,-0.15387105019,-0.00879934022957
2019-01-11 16:40:20.600,-0.175589311554,0.901683137541,-0.149776952614,9.93686789268,-8.39039061265,5.85155502057,heavy,B,32,0,0,1,0,0,0,-0.305802061993,-0.157672120451,0.00152434174373
2019-01-11 16:40:20.800,-0.182029588068,0.977203456342,-0.165145659288,5.74785772152,-12.1975119566,-0.601264987485,heavy,B,32,0,0,1,0,0,0,-0.332329400108,-0.165266086972,0.00564975156643
2019-01-11 16:40:21.000,-0.179748750586,0.927102633063,-0.137120471163,-0.326366046541,-3.55795711071,-14.2632914007,heavy,B,32,0,0,1,0,0,0,-0.31451611338,-0.149836412069,-0.00215573667438
2019-01-11 16:40:21.200,-0.202497722557,0.794230545324,-0.112363846087,9.24418209654,9.23544462468,-26.8931355506,heavy,B,32,0,0,1,0,0,0,-0.270686619544,-0.143398883268,-0.0237554504393
2019-01-11 16:40:21.400,-0.281033505679,0.735741935302,-0.162225414232,24.5808228972,14.0091326012,-25.0753989985,heavy,B,32,0,0,1,0,0,0,-0.258480200742,-0.187795016904,-0.0502608489544
2019-01-11 16:40:21.600,-0.380671496386,0.798619906213,-0.266642699475,20.4928358419,4.98923805167,-8.28143050879,heavy,B,32,0,0,1,0,0,0,-0.290659133667,-0.26364826238,-0.0696556007495
2019-01-11 16:40:21.800,-0.432432173645,0.88577352877,-0.316473075969,-10.9277500997,-12.4488963653,10.7471550804,heavy,B,32,0,0,1,0,0,0,-0.32600225204,-0.298491060298,-0.0800131905854
2019-01-11 16:40:22.000,-0.412799991905,0.941796743252,-0.23373036617,-46.4936525695,-24.872016912,20.8130496214,heavy,B,32,0,0,1,0,0,0,-0.341695754802,-0.244665747193,-0.0890379949558
2019-01-11 16:40:22.200,-0.360267802133,1.01942557911,-0.0577531900048,-51.4081797792,-22.0599057323,19.450040033,heavy,B,32,0,0,1,0,0,0,-0.359467947523,-0.130245542583,-0.100534920991
2019-01-11 16:40:22.400,-0.320433225934,1.12477251124,0.0910753740488,-13.7108715164,-7.75434337166,8.24922608969,heavy,B,32,0,0,1,0,0,0,-0.387969614455,-0.0333584255402,-0.107503653682
2019-01-11 16:40:22.600,-0.309021832721,1.14745723901,0.110486970868,39.329444618,4.06877700186,-9.10375000387,heavy,B,32,0,0,1,0,0,0,-0.393774945209,-0.0199383980119,-0.101831317658
2019-01-11 16:40:22.800,-0.328634349949,1.02718404284,-0.013950841321,63.856508219,5.55096921202,-23.6486942539,heavy,B,32,0,0,1,0,0,0,-0.3573868936,-0.100306231945,-0.0874686211269
2019-01-11 16:40:23.000,-0.381345717932,0.870422782221,-0.202663038193,42.9101594867,2.69265462708,-24.6930788062,heavy,B,32,0,0,1,0,0,0,-0.313321648201,-0.224379207889,-0.0788041914831
2019-01-11 16:40:23.200,-0.445242862735,0.803248044248,-0.337208712179,2.17338092438,3.72489625536,-10.2057648994,heavy,B,32,0,0,1,0,0,0,-0.299447355809,-0.315316600755,-0.0841514332828
2019-01-11 16:40:23.400,-0.46827100337,0.805559356178,-0.349137780753,-22.4799064519,6.38085262294,10.204355236,heavy,B,32,0,0,1,0,0,0,-0.302668000121,-0.325642225889,-0.0937011972722
2019-01-11 16:40:23.600,-0.416179328227,0.795975589211,-0.269943287209,-23.6719312065,3.55038044297,24.2463791902,heavy,B,32,0,0,1,0,0,0,-0.293216989737,-0.270965827337,-0.0884502672806
2019-01-11 16:40:23.800,-0.316092546265,0.789226410974,-0.185407525988,-17.8956551674,-3.42327963543,26.0873465231,heavy,B,32,0,0,1,0,0,0,-0.280520201731,-0.205216379696,-0.0618948422854
2019-01-11 16:40:24.000,-0.229845880168,0.838424751822,-0.146451443821,-12.4283785833,-6.26624067093,17.0171619043,heavy,B,32,0,0,1,0,0,0,-0.289010977042,-0.166500646291,-0.0285255314245
2019-01-11 16:40:24.200,-0.192403723021,0.88894644386,-0.14491497556,2.00520618324,-2.5581645218,2.06228207959,heavy,B,32,0,0,1,0,0,0,-0.302829546895,-0.157805398905,-0.00821092435292
2019-01-11 16:40:24.400,-0.197187299162,0.84274167366,-0.165363053419,25.3435074915,2.02721624678,-11.6030836183,heavy,B,32,0,0,1,0,0,0,-0.287840998388,-0.172349866792,-0.00647213205258
2019-01-11 16:40:24.600,-0.229712459836,0.74219249129,-0.216793798398,37.0484304675,3.75230665071,-16.2044281513,heavy,B,32,0,0,1,0,0,0,-0.257597475616,-0.211331880736,-0.0140653958447
2019-01-11 16:40:24.800,-0.280676687369,0.73832437882,-0.298177990057,21.8063439244,3.99229696778,-7.73924465183,heavy,B,32,0,0,1,0,0,0,-0.262616407555,-0.267356222193,-0.0204245327395
2019-01-11 16:40:25.000,-0.322301364229,0.86653752334,-0.367264388439,-7.77051595145,1.69705959774,9.99886310432,heavy,B,32,0,0,1,0,0,0,-0.311462370062,-0.310116994005,-0.0196873499763
2019-01-11 16:40:25.200,-0.309114349827,0.994679424256,-0.37212537952,-26.8783238301,-7.35489925067,26.763340228,heavy,B,32,0,0,1,0,0,0,-0.354095459122,-0.306444876461,-0.00770504962176
2019-01-11 16:40:25.400,-0.228213857757,1.0292481445,-0.301338522803,-27.5864688434,-20.2235777939,32.0473540484,heavy,B,32,0,0,1,0,0,0,-0.357393567048,-0.250620785361,0.0148087972147
2019-01-11 16:40:25.600,-0.131868857204,1.0379646165,-0.18863770765,-19.4146779877,-24.8201150343,21.0748028919,heavy,B,32,0,0,1,0,0,0,-0.349540797288,-0.168490246546,0.0346037100408
2019-01-11 16:40:25.800,-0.0948177234045,1.09736610547,-0.083196317916,-8.85560276581,-14.5041097083,-2.3976339585,heavy,B,32,0,0,1,0,0,0,-0.363943429083,-0.0985822741364,0.032148429662
2019-01-11 16:41:25.000,-0.143056936253,1.13860972926,-0.026251641122,4.7736026468,1.5965526969,-26.2722708428,heavy,A,10,0,0,1,0,0,0,-0.380437630525,-0.0718552113767,0.00113589813174
2019-01-11 16:41:25.200,-0.238337371056,1.05807191802,-0.0332046754294,15.1014297509,9.37549453564,-34.732016808,heavy,A,10,0,0,1,0,0,0,-0.361158909941,-0.094527109697,-0.0436657263593
2019-01-11 16:41:25.400,-0.321123928507,0.905829955519,-0.0752709965681,9.29702250698,6.29570387802,-19.2334752507,heavy,A,10,0,0,1,0,0,0,-0.317543916832,-0.137995342421,-0.0801247917813
2019-01-11 16:41:25.600,-0.348973831332,0.830476881396,-0.0952153272176,-10.180668855,0.736212935813,10.6459593184,heavy,A,10,0,0,1,0,0,0,-0.295010761104,-0.156639946559,-0.0938615709626
2019-01-11 16:41:25.800,-0.306815147086,0.859857128501,-0.0688697511142,-19.5354601469,-1.4236905329,30.7448718649,heavy,A,10,0,0,1,0,0,0,-0.300929048925,-0.133118296766,-0.0800729946409
2019-01-11 16:41:26.000,-0.21683518729,0.868017820507,-0.0413507508031,-2.41963328622,-2.10167034929,23.4884251742,heavy,A,10,0,0,1,0,0,0,-0.295376934405,-0.101959444062,-0.0438496341732
2019-01-11 16:41:26.200,-0.143863994307,0.78259769597,-0.0720941788404,23.9787232439,-4.33066824152,-3.15383230868,heavy,A,10,0,0,1,0,0,0,-0.260810939925,-0.110961940048,-0.00624821476346
2019-01-11 16:41:26.400,-0.153541932023,0.707354132891,-0.147637502858,27.0087047657,-7.40788558313,-22.1164363018,heavy,A,10,0,0,1,0,0,0,-0.237864574367,-0.159330809035,0.00278529200682
2019-01-11 16:41:26.600,-0.238539403484,0.771512147627,-0.18366438214,-0.134214194139,-9.69187835893,-14.5269833801,heavy,A,10,0,0,1,0,0,0,-0.267799248193,-0.192156214674,-0.0263032672199
2019-01-11 16:41:26.800,-0.306406581183,0.941967258636,-0.122296411684,-30.0977795246,-11.1415585508,12.0690898551,heavy,A,10,0,0,1,0,0,0,-0.330062574724,-0.161615357219,-0.0643140674371
2019-01-11 16:41:27.000,-0.271929638378,1.0788921808,0.00230638219353,-35.2352927133,-11.4700398066,33.0800686821,heavy,A,10,0,0,1,0,0,0,-0.370698658173,-0.0784124096698,-0.0700435232337
2019-01-11 16:41:27.200,-0.156805966792,1.12846366264,0.107270801608,-15.6365675548,-9.23386003398,30.1636118629,heavy,A,10,0,0,1,0,0,0,-0.375223072858,0.0036330279852,-0.037387293327
2019-01-11 16:41:27.400,-0.0714798879577,1.150115773,0.140284465613,9.67954260007,-4.2439290601,4.41559212308,heavy,A,10,0,0,1,0,0,0,-0.37440389585,0.0376788514091,-0.00295438569817
2019-01-11 16:41:27.600,-0.0965844483449,1.16669981673,0.100887012876,24.628814649,1.35196986017,-26.6239622817,heavy,A,10,0,0,1,0,0,0,-0.382887635798,0.0108869825611,-0.00327913917768
2019-01-11 16:41:27.800,-0.204379530205,1.11258584666,0.0197847633667,22.2701176733,5.18210835722,-40.2430755253,heavy,A,10,0,0,1,0,0,0,-0.37547438379,-0.056254097258,-0.0367401978665
2019-01-11 16:41:28.000,-0.299781125899,0.968631984718,-0.0510874323614,3.77821578022,6.13118549077,-23.6511639443,heavy,A,10,0,0,1,0,0,0,-0.336511161136,-0.118119751909,-0.072921990449
2019-01-11 16:41:28.200,-0.314135778785,0.839319353484,-0.0588100995133,-16.8053203233,3.84122320061,12.2929021751,heavy,A,10,0,0,1,0,0,0,-0.294287608301,-0.129045199732,-0.0861378716946
2019-01-11 16:41:28.400,-0.250416268236,0.817776019597,-0.00586765912494,-17.6239480675,-0.928668009343,36.5226467002,heavy,A,10,0,0,1,0,0,0,-0.28045017177,-0.0882267914548,-0.0705856216589
2019-01-11 16:41:28.600,-0.164020437996,0.850211617963,0.0292253248966,6.53026271346,-5.33388965945,25.7259744118,heavy,A,10,0,0,1,0,0,0,-0.283183665813,-0.052632549178,-0.0359442463291
2019-01-11 16:41:28.800,-0.121024607831,0.828956290665,-0.0244948973913,31.1481219142,-6.38228355182,-8.76826779324,heavy,A,10,0,0,1,0,0,0,-0.273417447354,-0.0779266046413,-0.00356281606713
2019-01-11 16:41:29.000,-0.156094777128,0.771115191388,-0.132360288772,28.1288010348,-4.59493168235,-30.6225146176,heavy,A,10,0,0,1,0,0,0,-0.259301565975,-0.148677253903,0.0016919341308
2019-01-11 16:41:29.200,-0.241060850627,0.795134385964,-0.188342848919,0.926877181119,-3.7610614292,-18.3711678737,heavy,A,10,0,0,1,0,0,0,-0.276109765744,-0.194424549037,-0.0250683237861
2019-01-11 16:41:29.400,-0.298011223959,0.932103801126,-0.146434957855,-21.8763370013,-6.22788741157,12.2300533897,heavy,A,10,0,0,1,0,0,0,-0.326523084124,-0.17467882121,-0.0551509144222
2019-01-11 16:41:29.600,-0.268781991497,1.07004101975,-0.0621331161916,-25.0041825059,-9.90393855515,29.6442937543,heavy,A,10,0,0,1,0,0,0,-0.368880173283,-0.115993542855,-0.0541186133148
2019-01-11 16:41:29.800,-0.17832160674,1.11029674467,0.00513697198761,-18.8325840269,-10.5478633521,21.0756340682,heavy,A,10,0,0,1,0,0,0,-0.373307701745,-0.0602699699023,-0.0255094280795
2019-01-11 16:41:30.000,-0.115126445309,1.08520545443,0.0615459503724,-12.1625637151,-5.89527889426,-1.70575568152,heavy,A,10,0,0,1,0,0,0,-0.358094087007,-0.0174914847465,-0.00983290859478
2019-01-11 16:41:30.200,-0.143374351173,1.06998184625,0.115910433433,2.6359564059,2.62409108147,-21.7657649902,heavy,A,10,0,0,1,0,0,0,-0.353842450719,0.00903613167759,-0.0340940714725
2019-01-11 16:41:30.400,-0.242462106656,1.05556341644,0.116535018989,25.359434407,10.8173989289,-29.3097227404,heavy,A,10,0,0,1,0,0,0,-0.357010283339,-0.00786532694327,-0.078198936752
2019-01-11 16:41:30.600,-0.332894605891,0.98861573359,0.0231696652436,31.8726372521,14.0476907968,-19.3664037701,heavy,A,10,0,0,1,0,0,0,-0.344051045442,-0.0798762267171,-0.10159375618
2019-01-11 16:41:30.800,-0.349594327295,0.892796021289,-0.0955336131646,5.43939212039,10.294250662,6.09078024021,heavy,A,10,0,0,1,0,0,0,-0.316051472592,-0.154927636176,-0.0898449679011
2019-01-11 16:41:31.000,-0.288153864949,0.852209776655,-0.121179644907,-29.0754793804,2.15773200273,30.2935541921,heavy,A,10,0,0,1,0,0,0,-0.298100454367,-0.160602915884,-0.0610346977778
2019-01-11 16:41:31.200,-0.19602157362,0.874613776535,-0.040469628611,-29.7194711452,-4.7847994953,30.504215375,heavy,A,10,0,0,1,0,0,0,-0.296090280547,-0.097359474242,-0.0361368320636
2019-01-11 16:41:31.400,-0.13326395186,0.867189914801,0.0324177119488,6.24197231161,-6.74675360173,3.9548821608,heavy,A,10,0,0,1,0,0,0,-0.286266305625,-0.0450524286303,-0.0215310991767
2019-01-11 16:41:31.600,-0.136586293131,0.78963932129,0.00526013871061,36.1808920789,-5.09017161005,-24.0091913268,heavy,A,10,0,0,1,0,0,0,-0.260618162727,-0.0644590617185,-0.0185779348202
2019-01-11 16:41:31.800,-0.202010665054,0.747547905076,-0.0825149741885,27.4470036673,-4.55698660944,-27.2392280962,heavy,A,10,0,0,1,0,0,0,-0.253970719747,-0.127985904944,-0.0313815641674
2019-01-11 16:41:32.000,-0.287653475562,0.849426243631,-0.129804515174,-3.95547471512,-7.95250589956,-7.6448221111,heavy,A,10,0,0,1,0,0,0,-0.297065113264,-0.166236846531,-0.0568487337553
2019-01-11 16:41:32.200,-0.336268081475,1.02446323471,-0.101093250362,-21.6689933003,-12.6993871751,12.4287081456,heavy,A,10,0,0,1,0,0,0,-0.359943382166,-0.151681758008,-0.0778335632955
2019-01-11 16:41:32.400,-0.31333158514,1.09838426544,-0.0387236248174,-16.5264044011,-13.0370938046,19.2357431021,heavy,A,10,0,0,1,0,0,0,-0.38156550627,-0.109031298038,-0.0773149326584
2019-01-11 16:41:32.600,-0.238652133496,1.03879153969,0.0152590315041,-6.65031973607,-6.17045228761,15.7921578923,heavy,A,10,0,0,1,0,0,0,-0.3537574155,-0.0669080102019,-0.0577704271775
2019-01-11 16:41:32.800,-0.177573691882,0.993290032862,0.0520162449938,-2.1780990314,3.81992954984,5.94589836643,heavy,A,10,0,0,1,0,0,0,-0.332304331684,-0.0365131417579,-0.0400794795778
2019-01-11 16:41:33.000,-0.186638192249,1.05043601169,0.062175479328,5.32045555299,9.3699700652,-11.3985406024,heavy,A,10,0,0,1,0,0,0,-0.352097901908,-0.0301961854245,-0.0427603018548
2019-01-11 16:41:33.200,-0.261686389013,1.09867100891,0.0258176657692,18.2785859854,7.49943052539,-28.5002915536,heavy,A,10,0,0,1,0,0,0,-0.375447169675,-0.0626865900229,-0.0651401492535
2019-01-11 16:41:33.400,-0.343051277798,1.01105163975,-0.0479821479831,20.9234606145,2.99200947882,-26.4385865814,heavy,A,10,0,0,1,0,0,0,-0.354283749021,-0.122506994966,-0.0899307005238
2019-01-11 16:41:33.600,-0.370745084969,0.859231333923,-0.106478873073,2.4153251543,1.82280751527,1.10942917685,heavy,A,10,0,0,1,0,0,0,-0.306724303362,-0.166103221686,-0.0988144781817
2019-01-11 16:41:33.800,-0.329718454497,0.810010338542,-0.10188759559,-21.4058171981,3.32448133111,31.2922078463,heavy,A,10,0,0,1,0,0,0,-0.286745939051,-0.15777303857,-0.0857583307913
2019-01-11 16:41:34.000,-0.249014048507,0.869530705524,-0.0442324099596,-23.4223621523,2.33239380878,34.0209428794,heavy,A,10,0,0,1,0,0,0,-0.298830167157,-0.108562891101,-0.0591743313207
2019-01-11 16:41:34.200,-0.175012372258,0.884944372111,0.00560177457706,1.39629694275,-2.17395423075,8.06512047453,heavy,A,10,0,0,1,0,0,0,-0.296450830051,-0.0669780056721,-0.0339530795937
2019-01-11 16:41:34.400,-0.148172919677,0.799092146097,-0.00721977895373,28.5060709063,-5.64332022295,-17.7763194856,heavy,A,10,0,0,1,0,0,0,-0.265158953361,-0.0732838711772,-0.0211738075645
2019-01-11 16:41:34.600,-0.183693927878,0.749281597853,-0.0801865391392,30.9005171961,-5.67384285499,-20.0900871219,heavy,A,10,0,0,1,0,0,0,-0.252956265452,-0.123586173919,-0.0234338181223
2019-01-11 16:41:34.800,-0.254742942333,0.850776458019,-0.15272944784,7.69142968771,-5.79638861473,-4.30754471576,heavy,A,10,0,0,1,0,0,0,-0.295228785439,-0.174232470306,-0.0361487685316
2019-01-11 16:41:35.000,-0.302268815542,1.00957297103,-0.160640449207,-17.4313645406,-9.06167246187,10.693541411,heavy,A,10,0,0,1,0,0,0,-0.353436500856,-0.181288577149,-0.0497376458363
2019-01-11 16:41:35.200,-0.283757811813,1.06373688995,-0.0976274775179,-23.1177094095,-12.0874614943,16.7334379534,heavy,A,10,0,0,1,0,0,0,-0.368806004838,-0.139532449807,-0.0530321013271
2019-01-11 16:41:35.400,-0.218263107008,1.02470694028,-0.0183206120354,-10.6058705963,-9.18595084254,15.3595959064,heavy,A,10,0,0,1,0,0,0,-0.348114742261,-0.0835927482937,-0.0420859307687
2019-01-11 16:41:35.600,-0.170280965835,1.02902712593,0.0208287767933,3.53713702446,-0.302747821872,5.28898526921,heavy,A,10,0,0,1,0,0,0,-0.344505001415,-0.0525391846914,-0.0277308163634
2019-01-11 16:41:35.800,-0.184302006723,1.09055536095,0.0106220894359,8.51818795319,8.44132681389,-13.6070821578,heavy,A,10,0,0,1,0,0,0,-0.366699184884,-0.0587088376322,-0.0280525472937
2019-01-11 16:41:36.000,-0.247274494198,1.07658043443,-0.0230261999002,6.95376968492,11.5692470304,-29.5418076307,heavy,A,10,0,0,1,0,0,0,-0.368009068114,-0.0892901722503,-0.0496178689574
2019-01-11 16:41:36.200,-0.317252945339,0.947314309626,-0.0576819399419,4.76453932581,9.31701092542,-27.4787775266,heavy,A,10,0,0,1,0,0,0,-0.330886031025,-0.125548047517,-0.0803038858163
2019-01-11 16:41:36.400,-0.366242896496,0.841018248958,-0.0850376626539,2.4248274729,5.56940781342,-7.94376686094,heavy,A,10,0,0,1,0,0,0,-0.2996495873,-0.153315024269,-0.102266743687
2019-01-11 16:41:36.600,-0.381118008837,0.853914284427,-0.0984006130783,-1.89364005536,2.47317267464,13.8770345321,heavy,A,10,0,0,1,0,0,0,-0.305649290982,-0.163222654505,-0.106046924561
2019-01-11 16:41:36.800,-0.347711844991,0.897946009422,-0.0909907052239,-6.66215055017,-0.878862370487,26.0918712473,heavy,A,10,0,0,1,0,0,0,-0.31766659969,-0.151852819005,-0.0908749041442
2019-01-11 16:41:37.000,-0.26694292053,0.875680735706,-0.0665862237413,-7.76419757886,-4.36249750355,26.8779181252,heavy,A,10,0,0,1,0,0,0,-0.30280840056,-0.124831079858,-0.0609508363411
2019-01-11 16:41:37.200,-0.17826118186,0.846683919763,-0.0419031367795,-3.16054184101,-4.70640179192,17.2325395862,heavy,A,10,0,0,1,0,0,0,-0.284937604464,-0.096554278902,-0.0273019011683
2019-01-11 16:41:37.400,-0.13282957625,0.892533571444,-0.0340380192648,3.18560502963,-0.592820701178,0.977643422551,heavy,A,10,0,0,1,0,0,0,-0.296419430873,-0.082829602033,-0.00549070997026
2019-01-11 16:42:43.400,-0.138320664738,0.950223538544,-0.0409680165174,2.45930261902,2.65120402064,-9.40678942003,heavy,B,33,0,0,1,0,0,0,-0.316585015664,-0.0858145567804,-0.00339285179651
2019-01-11 16:42:43.600,-0.156001961878,0.935801970707,-0.0348869150767,-7.97279843182,-0.803972072155,-3.21243071424,heavy,B,33,0,0,1,0,0,0,-0.313125181129,-0.085606391857,-0.0142319255217
2019-01-11 16:42:43.800,-0.158630755904,0.924669814139,0.00628754639604,-13.6598957521,-6.85299566477,9.25419098246,heavy,B,33,0,0,1,0,0,0,-0.30865952423,-0.0623830441375,-0.0256716398947
2019-01-11 16:42:44.000,-0.165638658185,1.02811404115,0.0487885785927,4.03296628679,-4.43447296574,4.22951244009,heavy,B,33,0,0,1,0,0,0,-0.343139050303,-0.0355338996499,-0.0318203623101
2019-01-11 16:42:44.200,-0.207676412431,1.16240439036,0.0142989608289,36.4731797596,8.34734277631,-21.1803534998,heavy,B,33,0,0,1,0,0,0,-0.392674141683,-0.0585659840451,-0.033936538598
2019-01-11 16:42:44.400,-0.275487502458,1.13418767415,-0.121481569063,45.444294122,18.1931015036,-37.7439073648,heavy,B,33,0,0,1,0,0,0,-0.391901197913,-0.150186944097,-0.0351430851291
2019-01-11 16:42:44.600,-0.322133375963,0.931586748646,-0.262319883706,9.69842204451,12.5923115262,-20.3921464214,heavy,B,33,0,0,1,0,0,0,-0.330803020826,-0.246588010308,-0.0378776089015
2019-01-11 16:42:44.800,-0.31011500046,0.751881000418,-0.277019990393,-39.1693622627,-3.12554955318,15.9039190542,heavy,B,33,0,0,1,0,0,0,-0.26970509036,-0.258656370276,-0.0419816663152
2019-01-11 16:42:45.000,-0.246686969676,0.733116090516,-0.150451770212,-51.276063867,-12.3142430285,34.0154896904,heavy,B,33,0,0,1,0,0,0,-0.255167311156,-0.174637350115,-0.04330980057
2019-01-11 16:42:45.200,-0.175830985773,0.8166713059,0.00194328031467,-21.5031111369,-8.2306666933,22.2106422299,heavy,B,33,0,0,1,0,0,0,-0.273678645733,-0.0712703127004,-0.0386514487356
2019-01-11 16:42:45.400,-0.13901199775,0.897572915898,0.0755955953356,8.87082408332,-0.481056861078,3.99483292743,heavy,B,33,0,0,1,0,0,0,-0.295990676746,-0.0196728039985,-0.0319595118148
2019-01-11 16:42:45.600,-0.140090475354,0.95650281964,0.0768421737055,11.3573317269,0.176618275323,0.620109322727,heavy,B,33,0,0,1,0,0,0,-0.315998624964,-0.0172117447382,-0.0295377248145
2019-01-11 16:42:45.800,-0.148248260993,0.990989937658,0.0641840058533,1.59119134286,-4.61221881906,4.9060466627,heavy,B,33,0,0,1,0,0,0,-0.328759241431,-0.024798673545,-0.0293927516154
2019-01-11 16:42:46.000,-0.138321635449,0.954523072419,0.0487933108465,5.84450077319,-6.11746961004,0.406004627577,heavy,B,33,0,0,1,0,0,0,-0.31589653769,-0.0334303912563,-0.0229995715748
2019-01-11 16:42:46.200,-0.122872268782,0.849146169879,-0.00351127390178,23.9344037993,-1.51569540705,-11.3170721898,heavy,B,33,0,0,1,0,0,0,-0.279967943303,-0.0650750442759,-0.00841181217402
2019-01-11 16:42:46.400,-0.135940969063,0.777443912442,-0.106585270655,38.1578397595,3.82158234425,-16.8452162929,heavy,B,33,0,0,1,0,0,0,-0.259082754475,-0.130015760548,0.00584807707109
2019-01-11 16:42:46.600,-0.189270942025,0.810839890479,-0.232708785371,37.4738756077,4.14563768392,-12.7867895346,heavy,B,33,0,0,1,0,0,0,-0.277868270119,-0.211610279339,0.0111726569343
2019-01-11 16:42:46.800,-0.25574949536,0.88275330194,-0.335812141036,19.0837145148,-1.24703809775,-5.7985473909,heavy,B,33,0,0,1,0,0,0,-0.310411488141,-0.280517319277,0.00622528377439
2019-01-11 16:42:47.000,-0.295838632053,0.904966173343,-0.36529653111,-14.444992291,-8.84410423889,2.24727796015,heavy,B,33,0,0,1,0,0,0,-0.322280962795,-0.303377300151,-0.00653449821117
2019-01-11 16:42:47.200,-0.292027963853,0.919619004934,-0.288240653536,-43.9490064647,-13.3925880638,12.8487853952,heavy,B,33,0,0,1,0,0,0,-0.325355197823,-0.25681855351,-0.0231479959308
2019-01-11 16:42:47.400,-0.259058720524,1.01855679975,-0.143959952839,-38.7875790892,-10.865701803,18.0009913219,heavy,B,33,0,0,1,0,0,0,-0.352664234875,-0.163694310685,-0.0348960305922
2019-01-11 16:42:47.600,-0.230620403544,1.15456257303,-0.0520382363741,5.04400357502,-2.44663656353,6.01698584713,heavy,B,33,0,0,1,0,0,0,-0.393815398295,-0.101219524026,-0.0325180365078
2019-01-11 16:42:47.800,-0.236341293109,1.16952730482,-0.103181151289,45.4139816009,5.29364366896,-17.427079723,heavy,B,33,0,0,1,0,0,0,-0.400212226708,-0.132063406658,-0.0200920782644
2019-01-11 16:42:48.000,-0.279333339995,1.01732543775,-0.240777367106,37.510256568,6.8185308074,-28.8163073147,heavy,B,33,0,0,1,0,0,0,-0.355539019662,-0.224567589408,-0.0170906581495
2019-01-11 16:42:48.200,-0.32806220575,0.839002122828,-0.308353123769,-9.54442659235,2.98116261771,-13.8510153715,heavy,B,33,0,0,1,0,0,0,-0.301187435302,-0.277445935653,-0.0363983104318
2019-01-11 16:42:48.400,-0.336059023261,0.780598559886,-0.229869099641,-43.5899743349,-2.03824567572,14.7245151422,heavy,B,33,0,0,1,0,0,0,-0.28051571704,-0.234387510503,-0.0629440654508
2019-01-11 16:42:48.600,-0.280307946059,0.831460145,-0.0909750331758,-34.8923131922,-6.38970041699,32.5062303454,heavy,B,33,0,0,1,0,0,0,-0.289749585415,-0.142395004589,-0.0656363989991
2019-01-11 16:42:48.800,-0.184164554317,0.890024466343,-0.0171029024637,-5.91726303328,-9.72592309441,29.2737847151,heavy,B,33,0,0,1,0,0,0,-0.299572475585,-0.0816930176814,-0.033664932794
2019-01-11 16:42:49.000,-0.0997351566008,0.91064141386,-0.0251168830277,8.16639391155,-9.64318752148,13.8633717187,heavy,B,33,0,0,1,0,0,0,-0.299564383837,-0.0717619779838,0.00848137760465
2019-01-11 16:42:49.200,-0.0646593840767,0.922984675193,-0.0423174827413,3.43697019555,-4.49853982235,0.154572993307,heavy,B,33,0,0,1,0,0,0,-0.301245357429,-0.0753335396216,0.0287257765902
2019-01-11 16:42:49.400,-0.0747645797223,0.954200202985,-0.0289137767337,-1.88685345813,1.20080351959,-4.52993531144,heavy,B,33,0,0,1,0,0,0,-0.31238354621,-0.0679475782067,0.0225302944334
2019-01-11 16:42:49.600,-0.0967685734108,0.99078569985,-0.0115826305633,-0.762004690107,0.475662181457,-1.35309131354,heavy,B,33,0,0,1,0,0,0,-0.326203661986,-0.0603354716272,0.0106040408647
2019-01-11 16:42:49.800,-0.104450736688,1.00086274701,-0.0103962990579,-0.163890163365,-5.85118902252,2.28271238279,heavy,B,33,0,0,1,0,0,0,-0.330236217759,-0.0607485173998,0.0073299261674
2019-01-11 16:42:50.000,-0.101347565974,0.963159835595,-0.00818436408646,0.241143417367,-8.58481396715,-1.58769881718,heavy,B,33,0,0,1,0,0,0,-0.317138401571,-0.0602335438204,0.00642820118839
2019-01-11 16:42:50.200,-0.110861170942,0.887634620031,-0.00705030459508,9.68993466408,-2.89062100211,-12.8198538321,heavy,B,33,0,0,1,0,0,0,-0.292210350033,-0.0636631306252,-0.00112832650408
2019-01-11 16:42:50.400,-0.14909566835,0.821408540811,-0.0495793833137,26.053192012,4.15705719288,-21.6606262053,heavy,B,33,0,0,1,0,0,0,-0.273817200411,-0.0972251016455,-0.0111606224376
2019-01-11 16:42:50.600,-0.210824019046,0.814915690374,-0.149975856128,32.7483458408,3.86816236725,-20.0753215056,heavy,B,33,0,0,1,0,0,0,-0.279107700844,-0.166620760172,-0.0168279654737
2019-01-11 16:42:50.800,-0.27912441852,0.869412370535,-0.253194662779,21.4388102668,-1.373265008,-11.7441624537,heavy,B,33,0,0,1,0,0,0,-0.305846230888,-0.236586566298,-0.0230304774708
2019-01-11 16:42:51.000,-0.339046564351,0.931963904978,-0.300925637438,2.95107950155,-3.36825576864,-5.33912349807,heavy,B,33,0,0,1,0,0,0,-0.333348595601,-0.272241035275,-0.0377076720185
2019-01-11 16:42:51.200,-0.376342110203,0.951098495087,-0.296614169038,-11.2725044275,-2.46599210339,-0.968586377029,heavy,B,33,0,0,1,0,0,0,-0.342967698289,-0.275095592414,-0.055529202164
2019-01-11 16:42:51.400,-0.373047274183,0.931164130225,-0.263665132785,-23.4089919586,-6.25897019557,8.25911312681,heavy,B,33,0,0,1,0,0,0,-0.335267086854,-0.255821549544,-0.0632563944728
2019-01-11 16:42:51.600,-0.321774283143,0.928856234509,-0.186078377189,-33.8359596843,-13.9944007,21.0299953232,heavy,B,33,0,0,1,0,0,0,-0.328465772894,-0.201936964389,-0.0582259373253
2019-01-11 16:42:51.800,-0.247564511051,0.991831527606,-0.058245908026,-26.8487977758,-13.9043920411,23.515381704,heavy,B,33,0,0,1,0,0,0,-0.340517182498,-0.112780642309,-0.0493442910388
2019-01-11 16:42:52.000,-0.201470630577,1.09120735291,0.035040256536,8.05662427852,-0.79151964944,6.00749895677,heavy,B,33,0,0,1,0,0,0,-0.367809542531,-0.0474981578599,-0.0415771368186
2019-01-11 16:42:52.200,-0.219851846894,1.12722874644,-0.0208208003894,47.9127003295,13.3133735868,-20.6112557849,heavy,B,33,0,0,1,0,0,0,-0.382508382065,-0.0823829145371,-0.0327315439614
2019-01-11 16:42:52.400,-0.289256870551,1.03362703019,-0.212464172466,52.9415218665,13.6190593654,-32.0918925961,heavy,B,33,0,0,1,0,0,0,-0.36108280113,-0.209237658927,-0.0259712220179
2019-01-11 16:42:52.600,-0.354134623703,0.872645473212,-0.374563533885,14.6837252076,1.30877258386,-15.7934445401,heavy,B,33,0,0,1,0,0,0,-0.316142189021,-0.319864823256,-0.0303165757506
2019-01-11 16:42:52.800,-0.359816276775,0.780332868224,-0.364393138781,-31.2344402764,-10.0897761727,15.0205116138,heavy,B,33,0,0,1,0,0,0,-0.285515503914,-0.317432617914,-0.0432274768721
2019-01-11 16:42:53.000,-0.292766742417,0.805937066632,-0.213312907807,-46.580021733,-12.4789965942,34.2568595083,heavy,B,33,0,0,1,0,0,0,-0.285154220048,-0.216815476401,-0.0463003445871
2019-01-11 16:42:53.200,-0.188536859813,0.859041618552,-0.0656199440041,-28.6031693241,-8.9589147305,28.6637048045,heavy,B,33,0,0,1,0,0,0,-0.290776935963,-0.111431850719,-0.027888902349
2019-01-11 16:42:53.400,-0.106275584149,0.845772713651,-0.0126295831907,0.539603544625,-4.61828239664,7.2452125615,heavy,B,33,0,0,1,0,0,0,-0.277877209069,-0.0674442818765,-0.000853728340897
2019-01-11 16:42:53.600,-0.0921574000485,0.797749716246,-0.041603844773,24.4614271772,-0.644768111125,-13.3331653227,heavy,B,33,0,0,1,0,0,0,-0.260883007064,-0.0838815163985,0.0113808923038
2019-01-11 16:42:53.800,-0.156405785739,0.803648530476,-0.112109759196,37.7389139254,1.89214239712,-25.1046688291,heavy,B,33,0,0,1,0,0,0,-0.269797068353,-0.135841109611,-0.000757569804739
2019-01-11 16:42:54.000,-0.271065783844,0.860501076462,-0.202699077526,33.6162226226,-0.0430513045621,-27.1057450029,heavy,B,33,0,0,1,0,0,0,-0.300827692233,-0.206146817697,-0.0299638925106
2019-01-11 16:42:54.200,-0.382764711591,0.889863525615,-0.278234142361,8.12806124503,-6.74007524239,-16.6712334931,heavy,B,33,0,0,1,0,0,0,-0.322131895807,-0.267822703742,-0.064110336449
2019-01-11 16:42:54.400,-0.438518068686,0.888901662576,-0.283228925872,-24.2474708039,-13.036533929,5.7345855548,heavy,B,33,0,0,1,0,0,0,-0.326881742713,-0.279753950556,-0.0907060413676
2019-01-11 16:42:54.600,-0.418962244453,0.948590156276,-0.205867120116,-36.3113869409,-12.8222157451,26.1082443985,heavy,B,33,0,0,1,0,0,0,-0.343766084729,-0.229092495405,-0.0970564707215
2019-01-11 16:42:54.800,-0.35369424555,1.08514207115,-0.114033206307,-16.1064319634,-4.52607026739,25.3960023627,heavy,B,33,0,0,1,0,0,0,-0.382240502489,-0.160108745304,-0.0796469494745
2019-01-11 16:42:55.000,-0.297217721832,1.16361751353,-0.0942544099866,18.7357311811,7.88389623262,2.44709927134,heavy,B,33,0,0,1,0,0,0,-0.403325548379,-0.136772297223,-0.0519029136696
2019-01-11 16:42:55.200,-0.285186234831,1.07171933554,-0.167316195317,38.6769596261,16.7769557346,-21.0670848613,heavy,B,33,0,0,1,0,0,0,-0.372710172767,-0.180611218604,-0.0332622276986
2019-01-11 16:42:55.400,-0.312771125669,0.891858567539,-0.277363085147,29.4201293294,14.7769893194,-23.6402417032,heavy,B,33,0,0,1,0,0,0,-0.316746141908,-0.255392860653,-0.0310217114121
2019-01-11 16:42:55.600,-0.346292166007,0.797302675147,-0.346383188689,0.501896524351,1.62635158292,-5.45581630496,heavy,B,33,0,0,1,0,0,0,-0.289411733619,-0.304316650566,-0.0378589747163
2019-01-11 16:42:55.800,-0.347439506879,0.823841499071,-0.329114037063,-26.3380551268,-12.3779528143,16.1992251742,heavy,B,33,0,0,1,0,0,0,-0.298351505828,-0.293426329603,-0.0429549758738
2019-01-11 16:42:56.000,-0.297210832038,0.858634749672,-0.23707559233,-34.3245338862,-15.1140811357,26.2071875908,heavy,B,33,0,0,1,0,0,0,-0.30384110328,-0.2299750664,-0.0395054730559
2019-01-11 16:42:56.200,-0.214419611976,0.840159180644,-0.127697291992,-22.6247952331,-6.48907192291,22.2261756281,heavy,B,33,0,0,1,0,0,0,-0.28795599494,-0.152733988655,-0.0263345054114
2019-01-11 16:42:56.400,-0.147346195022,0.844012962975,-0.0593502989305,-4.80018123768,1.68244868141,11.7253712863,heavy,B,33,0,0,1,0,0,0,-0.281868656747,-0.101494000974,-0.00958495441795
2019-01-11 16:42:56.600,-0.129102498526,0.933028509545,-0.0448724168966,4.74923141306,1.51541934663,3.67838511604,heavy,B,33,0,0,1,0,0,0,-0.310081120921,-0.0871953270148,0.000688317100943
2019-01-11 16:42:56.800,-0.141650570919,1.02596819885,-0.0538103113845,3.94060671412,-1.907037646,1.14337574593,heavy,B,33,0,0,1,0,0,0,-0.342846852103,-0.0915314132826,0.00165311749334
2019-01-11 16:42:57.000,-0.142325339363,0.999739435048,-0.0589313121181,2.21245929188,-0.91417270275,-0.63711549146,heavy,B,33,0,0,1,0,0,0,-0.334146390463,-0.095449210627,0.00108359668708
2019-01-11 16:42:57.200,-0.1265694035,0.872500480014,-0.0670463725828,8.75099605438,2.90766471976,-7.58624511268,heavy,B,33,0,0,1,0,0,0,-0.289832666855,-0.101749111267,0.00413367979916
2019-01-11 16:42:57.400,-0.139355731627,0.788697436538,-0.105053873423,23.484020771,3.6976596777,-17.764055718,heavy,B,33,0,0,1,0,0,0,-0.263265069417,-0.12908486424,0.00362822481997
2019-01-11 16:42:57.600,-0.211506458846,0.822058486456,-0.189376575764,36.1105976721,1.56944380462,-21.3832995585,heavy,B,33,0,0,1,0,0,0,-0.282495529135,-0.189647711984,-0.00784261020411
2019-01-11 16:42:57.800,-0.30624671412,0.886273673892,-0.303253072331,31.2866036522,-0.516882595994,-11.1993564791,heavy,B,33,0,0,1,0,0,0,-0.314936506817,-0.269999468532,-0.0227747464456
2019-01-11 16:42:58.000,-0.353105411324,0.886906051335,-0.387076761167,1.62283730996,-4.86705129644,8.25017638711,heavy,B,33,0,0,1,0,0,0,-0.321333340523,-0.326491202511,-0.027617532765
2019-01-11 16:42:58.200,-0.325548218528,0.880573387162,-0.366211339809,-37.3460287383,-13.7858103286,22.9670062331,heavy,B,33,0,0,1,0,0,0,-0.316736712277,-0.309450153173,-0.0228057262362
2019-01-11 16:42:58.400,-0.261636235247,0.982865568953,-0.225847634598,-52.1638503187,-19.3731899633,21.5269867459,heavy,B,33,0,0,1,0,0,0,-0.342852359899,-0.213160948314,-0.0206869276553
2019-01-11 16:42:58.600,-0.214088412057,1.15426952715,-0.0593220563355,-23.9627191261,-10.5915037344,5.1351417305,heavy,B,33,0,0,1,0,0,0,-0.392751545117,-0.102418948308,-0.0252728359021
2019-01-11 16:42:58.800,-0.207804706037,1.20921936022,-0.00272126057724,25.6084572728,8.65311690745,-14.2610367478,heavy,B,33,0,0,1,0,0,0,-0.409056460622,-0.066829197586,-0.0286724665736
2019-01-11 16:42:59.000,-0.244528234513,1.06570525876,-0.103047884634,52.7529721422,19.7629751225,-24.9451292219,heavy,B,33,0,0,1,0,0,0,-0.365624096789,-0.136566439729,-0.0284215192799
2019-01-11 16:42:59.200,-0.311391420517,0.867099351413,-0.272052280728,36.9701977719,12.0561690232,-22.6683971924,heavy,B,33,0,0,1,0,0,0,-0.308053644306,-0.253051476055,-0.0323712413502
2019-01-11 16:42:59.400,-0.370027214192,0.790097218304,-0.378723868632,-1.56381084055,-3.7402553084,-8.76246498242,heavy,B,33,0,0,1,0,0,0,-0.289736470412,-0.327524247957,-0.0418994469522
2019-01-11 16:42:59.600,-0.371154742791,0.830919640127,-0.363261318247,-30.2148711447,-10.5782281278,12.2126610923,heavy,B,33,0,0,1,0,0,0,-0.303568525003,-0.317033657262,-0.0459467332337
2019-01-11 16:42:59.800,-0.305934151868,0.870453512864,-0.255239256523,-36.5760869361,-6.49137150934,30.1439036363,heavy,B,33,0,0,1,0,0,0,-0.309026774276,-0.241454945598,-0.0390227563834
2019-01-11 16:43:00.000,-0.221234652827,0.865648064464,-0.120354178007,-27.7858847367,-2.60535069665,31.791659476,heavy,B,33,0,0,1,0,0,0,-0.297043122122,-0.148588157384,-0.030231160491
2019-01-11 16:43:00.200,-0.16530199165,0.85923220149,-0.0207972926444,-10.4689385559,-4.2310073974,13.0846794327,heavy,B,33,0,0,1,0,0,0,-0.28766010349,-0.0814914503702,-0.0258578041498
2019-01-11 16:43:00.400,-0.145925133036,0.855325722823,-0.00255208987591,13.7946328289,-4.79063866818,-13.1876552426,heavy,B,33,0,0,1,0,0,0,-0.284046772673,-0.0680775432159,-0.0193530492427
2019-01-11 16:43:00.600,-0.160704115123,0.818742233824,-0.0746567606847,35.7871801647,0.447562093157,-27.6839741236,heavy,B,33,0,0,1,0,0,0,-0.27439309803,-0.114156804026,-0.0103015307139
2019-01-11 16:43:00.800,-0.224292373215,0.782455017592,-0.190630510926,37.2614924361,4.64018008999,-21.9023110116,heavy,B,33,0,0,1,0,0,0,-0.270157858675,-0.19377668404,-0.0152536051622
2019-01-11 16:43:01.000,-0.323152464104,0.830095276588,-0.273173991926,11.0284262492,-0.705971976257,-2.72615425854,heavy,B,33,0,0,1,0,0,0,-0.296769991776,-0.256768838293,-0.0413154518047
2019-01-11 16:43:01.200,-0.38092014493,0.957346932898,-0.272389160781,-24.1908583856,-12.0766172444,16.9813058233,heavy,B,33,0,0,1,0,0,0,-0.345028696419,-0.261506607238,-0.0637871128703
2019-01-11 16:43:01.400,-0.329757774672,1.05692804892,-0.198978296182,-39.2347154082,-17.6056765517,27.905733901,heavy,B,33,0,0,1,0,0,0,-0.372903664539,-0.206612066736,-0.0530004277522
2019-01-11 16:43:01.600,-0.202294985881,1.06623754841,-0.103921467284,-24.9887931885,-12.2415445232,27.1505032916,heavy,B,33,0,0,1,0,0,0,-0.363033071112,-0.129463227952,-0.0149645437586
2019-01-11 16:43:01.800,-0.0987315900592,1.03445999521,-0.0342663240104,-0.589499329929,-2.9028534891,17.7555296965,heavy,B,33,0,0,1,0,0,0,-0.341738412291,-0.0725958525091,0.0166021605432
2019-01-11 16:43:02.000,-0.0689514577088,1.01365714374,-0.00489603524478,10.0017103171,1.35061068274,6.83642867375,heavy,B,33,0,0,1,0,0,0,-0.331396771763,-0.0511781121626,0.0233971647021
2019-01-11 16:44:01.200,-0.0760946960762,0.984198838978,0.000676690684632,3.38327512803,-0.858177717495,1.13935351206,heavy,A,11,0,0,1,0,0,0,-0.321923578403,-0.0500159653915,0.0171264677858
2019-01-11 16:44:01.400,-0.072764764127,0.939715818449,0.00670299287797,-4.48976746828,-4.37798300215,1.52925917943,heavy,A,11,0,0,1,0,0,0,-0.306492730344,-0.0473415961924,0.0145483898999
2019-01-11 16:44:01.600,-0.0620858692738,0.946976492767,0.0166026387415,-0.159571279964,-4.77286966542,1.27698686395,heavy,A,11,0,0,1,0,0,0,-0.307790616844,-0.0396022050149,0.0178308584134
2019-01-11 16:44:01.800,-0.0749091311095,1.03678272578,0.00859381747033,12.1984760119,-2.18473167683,-7.8850276266,heavy,A,11,0,0,1,0,0,0,-0.339373747928,-0.0436216268845,0.0192655415984
2019-01-11 16:44:02.000,-0.126937309065,1.10946691742,-0.0320469122576,17.3652371121,0.573372736501,-24.5373723067,heavy,A,11,0,0,1,0,0,0,-0.369251891672,-0.0737296290966,0.00899533052464
2019-01-11 16:44:02.200,-0.209287193503,1.0522237685,-0.0798794114145,7.2361643015,1.70877353973,-33.4552056351,heavy,A,11,0,0,1,0,0,0,-0.35793392825,-0.117186948684,-0.0210432917633
2019-01-11 16:44:02.400,-0.290705968258,0.908380275277,-0.0858764242766,-9.98983471648,1.56926740165,-19.3779581267,heavy,A,11,0,0,1,0,0,0,-0.316282679714,-0.138802802865,-0.0651143195299
2019-01-11 16:44:02.600,-0.32268710268,0.824559130783,-0.0345239513704,-18.5847845608,0.895912536165,12.193707344,heavy,A,11,0,0,1,0,0,0,-0.289436745167,-0.116793043298,-0.0962362181563
2019-01-11 16:44:02.800,-0.274257633781,0.846823787524,0.0295503371601,-11.2181367472,-0.229683844168,34.6803795959,heavy,A,11,0,0,1,0,0,0,-0.291386716098,-0.0706412247798,-0.0872987372979
2019-01-11 16:44:03.000,-0.175257208496,0.875354454342,0.0448399889357,5.49319269327,-1.18159186982,27.3472671038,heavy,A,11,0,0,1,0,0,0,-0.292280158386,-0.0444533874049,-0.0432908529416
2019-01-11 16:44:03.200,-0.103235245776,0.832438934092,-0.0048455582095,19.4395024204,-0.852022356766,-1.3150167516,heavy,A,11,0,0,1,0,0,0,-0.272748713625,-0.0630371631871,-0.000527883531367
